timestamp_s,accel_x,accel_y,accel_z,gyro_x,gyro_y,gyro_z,a_long,a_lat,yaw_rate,jerk_long,valid
0.0,0.1292001432081108,1.195686176323643,9.819584300838798,0.9242432859392076,0.5274297997839941,-0.0021030864753070508,0.31743704560578334,-0.03199230767439307,0.021332476604076236,0.0,True
0.1,-0.8025148110918896,1.5750846871999027,8.451184119497125,-0.19784343505025645,0.06560451043083435,-0.053352811590386885,-0.0619614652704763,-0.9637072619743935,-0.029917248511003598,-3.7939851087625964,True
0.2,-0.5939113314927073,1.3234712635099366,10.3669521894129,-0.4017223803771288,-0.11738582074825163,0.15706691545556659,0.18965195841948979,-0.7551037823752111,0.18050247853494988,2.516134236899661,True
0.3,0.36302684701150156,1.320527894149059,10.800211606554619,0.09494072117365113,0.04917434643565673,0.07902406984263417,0.19259532778036736,0.2018343961289977,0.10245963292201746,0.02943369360877579,True
0.4,-0.3755171705271338,1.416184443422406,9.414374297402098,0.37636512531414795,0.22340556960636512,-0.09328852593712265,0.09693877850702037,-0.5367096214096376,-0.06985296285773937,-0.9565654927334699,True
0.5,-0.28136496111740494,1.4177640549426251,8.908830716626348,0.049708065931717706,-0.009368967030048476,0.14181948431247088,0.09535916698680125,-0.44255741199990883,0.16525504739185418,-0.015796115202191263,True
0.6,0.3772727195881344,1.2537679602815974,8.989583846567157,-0.055705769133744795,0.043233800095107064,0.10221206790191767,0.25935526164782896,0.21608026870563055,0.12564763098130097,1.6399609466102771,True
0.7,0.6078772820530763,0.870204800409815,9.141616031631473,-0.1575411338619945,-0.0680153718835307,0.11439255550834138,0.6429184215196114,0.44668483117057245,0.13782811858772467,3.8356315987178244,True
0.8,0.7138653895654384,0.7210340632702045,10.239339465758144,-0.09929488141390047,0.04229194133305752,-0.1231820453869733,0.7920891586592219,0.5526729386829345,-0.09974648230759002,1.4917073713961049,True
0.9,-0.5365386042920361,1.2656592264736348,10.174281178631002,0.24325931311549612,0.12253294990089071,-0.21750983192832302,0.24746399545579156,-0.69773105517454,-0.19407426884893972,-5.446251632034303,True
1.0,-0.9212515883439305,1.177574231746746,8.624782459292343,0.22355642323667524,0.060838261250693,-0.07266809517491207,0.3355489901826805,-1.0824440392264343,-0.04923253209552879,0.8808499472688891,True
1.1,-0.9142614385347851,1.6523610129285478,9.369548377643241,-0.04685155292173657,0.045167770358449016,0.18275770148622544,-0.13923779099912137,-1.075453889417289,0.20619326456560874,-4.747867811818018,True
1.2,0.5739739754107525,1.7299213127621735,9.958748340780163,0.12732186858588163,0.022068532606780288,0.1204782321470044,-0.21679809083274715,0.41278152452824857,0.1439137952263877,-0.7756029983362578,True
1.3,-0.3753747013021817,1.5124682730920065,9.246036216476707,0.05002966059291807,-0.07325301479011104,-0.10882867910441044,0.0006549488374198997,-0.5365671521846855,-0.08539311602502715,2.1745303967016705,True
1.4,0.27864900510638063,1.0435596358221468,8.490969965198824,-0.13429871297673998,-0.0025574390732111506,0.0034845147217604554,0.46956358610727955,0.11745655422387677,0.026920077801143742,4.689086372698596,True
1.5,-0.38016464165268665,0.6722659996403765,9.946911917166199,-0.20096054460975718,0.045971610615393364,-0.19741959929852917,0.8408572222890499,-0.5413570925351905,-0.17398403621914588,3.7129363618177034,True
1.6,-0.5369620895042543,0.851814710252559,10.226602225571654,0.09965410982766833,-0.023066232923708605,-0.005725280476111783,0.6613085116768674,-0.6981545403867582,0.017710282603271503,-1.7954871061218247,True
1.7,-0.15885396389306114,0.9094370250452707,8.720015187435068,0.096529375393329,0.026664844039846067,-0.03645114416431969,0.6036861968841557,-0.320046414775565,-0.0130155810849364,-0.5762231479271174,True
1.8,-0.08544763173593459,0.9412494604893059,10.76075535849195,-0.23259950847961142,0.03666106257804284,-0.01583908022728559,0.5718737614401205,-0.24664008261843845,0.007596482852097696,-0.31812435444035225,True
1.9,-0.6662959489126683,1.468338334014148,9.921170012298195,0.64842073645586,-0.034513470047643165,-0.13288900468793774,0.04478488791527835,-0.8274883997951722,-0.10945344160855446,-5.270888735248421,True
2.0,-0.49266383978287076,0.7827780346896185,6.966304435595431,-0.33154048205024533,-0.06640656758787412,0.10605960443456827,0.7303451872398079,-0.6538562906653747,0.12949516751395157,6.855602993245295,True
2.1,0.4970797414130924,0.3124473054608764,12.02317658144326,-0.2722411100547365,0.09343844175044352,-0.004106291381349177,1.2006759164685499,0.3358872905305885,0.01932927169803411,4.70330729228742,True
2.2,-0.8937005914930195,1.5977344618664684,10.841228182926523,0.31024643240890143,-0.08971432543203643,-0.014365437473231912,-0.084611239937042,-1.0548930423755234,0.009070125606151376,-12.852871564055919,True
2.3,1.149090795140659,1.8775371139252612,10.442776013601259,0.15174844889628047,-0.07384539341926931,0.07889208666096799,-0.36441389199583485,0.9878983442581551,0.10232764974035127,-2.7980265205879284,True
2.4,-0.676012567922399,0.8690155188827323,8.38130943671154,0.11067287516118102,0.10852171304998211,-0.27286047192882645,0.6441077030466941,-0.837205018804903,-0.24942490884944316,10.08521595042529,True
2.5,-0.865676917808825,0.26155637681847427,7.2616592172270185,-0.1808154670061397,0.02274985699102369,0.1340183371586533,1.251566845110952,-1.0268693686913288,0.1574539002380366,6.074591420642579,True
2.6,0.6244299997393172,0.6980795197483748,10.449461891025072,-0.14974156819554013,0.16656631454543225,-0.09920041553490708,0.8150437021810516,0.46323754885681334,-0.07576485245552379,-4.365231429299004,True
2.7,-1.6761759830195615,2.057273182877534,9.709763330217793,0.26752320786419653,0.04522876404678019,-0.18481581857990406,-0.5441499609481075,-1.8373684339020653,-0.16138025550052076,-13.59193663129159,True
2.8,-0.343804555627101,1.306980182515097,10.630989809899194,-0.2882802914923609,0.007463066262553391,0.07079389369194165,0.20614303941432932,-0.5049970065096049,0.09422945677132494,7.5029300036243685,True
2.9,-0.7451294804715829,0.6060137675405167,9.952659403646805,0.2927059046605513,-0.0499218027914728,-0.06345011437932575,0.9071094543889097,-0.9063219313540868,-0.04001455129994247,7.009664149745803,True
3.0,-0.4796480153558398,1.650416802630392,7.800695187896,0.16247884536919993,-0.14502273987989195,0.06787396807538797,-0.13729358070096565,-0.6408404662383437,0.09130953115477125,-10.444030350898753,True
3.1,0.017364673599982044,1.2177633842002438,10.042576486221858,-0.35296181557487893,-0.12450664170424769,0.036836410437988604,0.2953598377291826,-0.14382777728252183,0.06027197351737189,4.326534184301482,True
3.2,0.17134473052544819,0.9554297639247687,10.48579552196743,0.10842537271067844,-0.11138212728658156,-0.0024854135677892194,0.5576934580046576,0.010152279642944323,0.020950149511594067,2.62333620275475,True
3.3,0.4674127422794766,1.4905391250260451,9.278001518853976,0.028404433568204556,-0.04299357090598638,-0.09722265166108014,0.022584096903381257,0.3062202913969727,-0.07378708858169686,-5.351093611012764,True
3.4,0.0026478671158999584,0.9034051983400223,8.90676095012037,-0.008086037666103399,-0.008631639488012282,-0.15102806681188363,0.6097180235894041,-0.1585445837666039,-0.12759250373250033,5.871339266860228,True
3.5,-0.5067852530096554,1.0682222586815815,10.436437687093312,-0.18864472101189364,0.005807102507713101,-0.08467379048004205,0.4449009632478449,-0.6679777038921593,-0.06123822740065876,-1.6481706034155919,True
3.6,0.12042994925701746,1.4712523044583359,9.721004616398472,0.2627046611122104,-0.10064828670787453,0.08461329016164698,0.04187091747109051,-0.040762501625486405,0.10804885324103027,-4.030300457767543,True
3.7,0.2934070971586645,1.3340596409068612,8.766643893511002,-0.09247920970295498,-0.03317682300328313,-0.031020715662461385,0.17906358102256514,0.1322146462761606,-0.0075851525830780975,1.3719266355147464,True
3.8,0.3463282343467807,0.4656571632309206,9.666804082302626,-0.21178890599944505,-0.06428682769104523,0.049153819868136765,1.0474660586985058,0.1851357834642768,0.07258938294752006,8.684024776759406,True
3.9,0.4754487338062406,1.2313419785642952,10.185105821007726,0.0801576901536538,-0.03169005405157786,-0.019039138380185054,0.2817812433651312,0.31425628292373675,0.0043964246991982335,-7.656848153333746,True
4.0,0.26460834124014687,0.9429640256034221,9.399649176336638,0.23154772334986307,0.0015826868317566837,-0.09210274285469154,0.5701591963260043,0.10341589035764301,-0.06866717977530826,2.8837795296087307,True
4.1,-0.3172213653539766,1.1102952807084994,7.765025751702207,-0.19567986394489117,0.032418311538971685,-0.07087275272037293,0.402827941220927,-0.4784138162364805,-0.04743718964098964,-1.673312551050773,True
4.2,0.12953219049749395,0.6269265405963714,12.926328931219928,-0.3909411049176397,0.02559797051365519,0.026492822025720193,0.886196681333055,-0.03166026038500991,0.04992838510510348,4.833687401121279,True
4.3,-0.19881213229106437,1.2633434986887835,8.110479377601159,1.0590429390711877,0.03957118418596334,-0.08586706318716597,0.2497797232406429,-0.3600045831735682,-0.062431500107782686,-6.36416958092412,True
4.4,-0.6193472088334708,2.094879374899527,6.838081847744338,-0.7652395615876534,0.11136583786903276,-0.0811470687405477,-0.5817561529701007,-0.7805396597159747,-0.05771150566116441,-8.315358762107437,True
4.5,-0.8249954587035853,0.7790415567898407,13.56686600502504,-0.05857446128241363,-0.05019024108100636,0.06414132282390222,0.7340816651395857,-0.9861879095860892,0.08757688590328551,13.158378181096863,True
4.6,0.37139516421404434,2.1534444873495433,7.047666495156039,0.309996683621451,-0.15429787017890773,0.12953347016477074,-0.6403212654201169,0.21020271333154047,0.15296903324415403,-13.744029305597024,True
4.7,-0.007373435278316654,1.1781067591571257,10.831054741652355,-0.26426097941306204,-0.05408681321658355,-0.017427356378429088,0.3350164627723007,-0.16856588616082052,0.0060082067009541995,9.753377281924175,True
4.8,0.4200727679260589,1.6503134892364106,9.484137868895715,0.005400285772340349,-0.1580881018645993,0.061560359553560755,-0.13719026730698425,0.2588803170435551,0.08499592263294405,-4.722067300792849,True
4.9,0.9538259083299466,1.2634303191253575,9.87334944456479,0.177303974592092,-0.006148223940368723,-0.05915494908306836,0.24969290280406886,0.7926334574474427,-0.03571938600368507,3.868831701110531,True
5.0,-0.3611861744876444,2.3055257024882088,8.453634463276668,-0.01746691896083237,0.0332008121452856,-0.15049388104667147,-0.7924024805587824,-0.5223786253701482,-0.12705831796728817,-10.420953833628511,True
5.1,-0.12900412638848915,2.3492187805506632,10.590637371509183,0.12032816979435963,-0.0755310702252685,0.02507965224971933,-0.8360955586212369,-0.290196577270993,0.04851521532910262,-0.4369307806245448,True
5.2,0.6493436830604232,3.010527168958723,8.77276707783043,0.05150469592676242,-0.11108339808583849,0.08458996732860527,-1.4974039470292968,0.48815123217791934,0.10802553040798855,-6.613083884080599,True
5.3,1.1848868814873266,2.1142093575839684,9.336707500897521,0.057942666561514276,-0.08569166273082854,0.01492292550925533,-0.601086135654542,1.0236944306048228,0.03835848858863862,8.963178113747547,True
5.4,1.0021484580695543,2.000354570434355,8.482803247168846,-0.25406986290517214,0.008489961896913485,-0.06774227924863059,-0.48723134850492866,0.8409560071870504,-0.04430671616924731,1.138547871496134,True
5.5,0.5120481734377993,1.60962410951105,11.51928114642616,-0.05343602454312699,-0.005604230994997542,-0.11224342583133723,-0.09650088758162356,0.3508557225552954,-0.08880786275195394,3.907304609233051,True
5.6,0.6004385442054955,2.0285893102633943,8.200252600187232,0.2598851312277659,-0.06752005045494856,0.001767484335272009,-0.5154660883339679,0.4392460933229916,0.025203047414655295,-4.189652007523443,True
5.7,1.067423863739505,1.6800915854035925,9.56526164570419,-0.16160194523614538,0.008712282591782224,-0.026045347880799305,-0.1669683634741661,0.9062314128570012,-0.0026097848014160173,3.484977248598018,True
5.8,0.7797465760950132,2.26833242437822,8.877140656713133,0.13325009793344753,0.020032402733856175,-0.08007752950959254,-0.7552092024487937,0.6185541252125093,-0.05664196643020926,-5.882408389746276,True
5.9,0.5553646777273133,1.8585432250887042,9.915446630861066,-0.18621801314392702,0.027383411336433423,-0.0018327521494178461,-0.3454200031592778,0.39417222684480946,0.02160281092996544,4.09789199289516,True
6.0,0.8355227477345142,1.8791059151244323,8.931314761541849,0.24694114346452437,0.0808069362567744,-0.0750291752282366,-0.36598269319500587,0.6743302968520103,-0.051593612148853316,-0.20562690035728082,True
6.1,0.011934713808057667,2.205003259381827,9.795521122682386,-0.26001372691622876,0.10249283356976635,-0.0965814639333878,-0.6918800374524008,-0.1492577370744462,-0.07314590085400452,-3.258973442573949,True
6.2,-0.0391941293595268,2.142497048485556,10.00816914521122,0.19786386774722667,0.011501761231335107,-0.01476638373736223,-0.6293738265561297,-0.20038658024203065,0.008669179342021058,0.6250621089627106,True
6.3,0.35655856878915687,1.8971708133687903,8.34926976102532,-0.12477631386361061,0.019719943755803132,0.04128542059851931,-0.38404759143936396,0.195366117906653,0.06472098367790259,2.4532623511676577,True
6.4,0.348693996143561,1.5089014534745948,9.969231395127178,-0.006309078150048896,0.059569657190170176,-0.025865785795722945,0.004221768454831576,0.18750154526105714,-0.002430222716339657,3.8826935989419553,True
6.5,0.08874728487941126,2.843798685768167,8.788847780756004,0.13397950808192,-0.018280571721526227,-0.07401486407303795,-1.3306754638387408,-0.0724451660030926,-0.050579300993654666,-13.348972322935722,True
6.6,0.43747598687724365,1.5945191421407934,10.196880110737204,-0.26392822894686685,-0.14853166476505802,0.04361382738990553,-0.08139592021136699,0.27628353599473976,0.06704939046928882,12.492795436273738,True
6.7,1.2277214619007217,1.7001138546056784,9.775461003269516,0.189554370939064,-0.05891813716349589,-0.040639662437428635,-0.18699063267625204,1.066529011018218,-0.017204099358045347,-1.0559471246488505,True
6.8,0.3679030178525533,2.331067434394515,8.114459142999706,0.12702104767500583,-0.030201332618864547,-0.09859408543372691,-0.8179442124650886,0.20671056697004944,-0.07515852235434363,-6.3095357978883655,True
6.9,0.5772321186287414,1.7239006198328526,10.706195048226473,-0.30477667177579404,-0.029124293311013467,-0.00845224409876953,-0.2107773979034262,0.41603966774623746,0.014983318980613758,6.071668145616624,True
7.0,0.8979725434399155,2.084716197594732,9.163062128893126,0.34991188895003256,-0.05231375369820845,0.021376277465983442,-0.5715929756653055,0.7367800925574116,0.04481184054536673,-3.6081557776187934,True
7.1,1.1694621299554033,1.8983188478738546,9.31495183953069,-0.18498486068471814,0.057679295415445635,-0.06516739796978871,-0.38519562594442824,1.0082696790728995,-0.041731834890405425,1.863973497208773,True
7.2,0.5141257529952457,2.165442688445941,9.576386977757647,0.12164597948432453,0.05278425890319967,-0.10729577109520567,-0.6523194665165144,0.35293330211274176,-0.08386020801582239,-2.6712384057208616,True
7.3,0.3565525087670002,2.318060422542934,9.58945137612328,0.017563766635642835,-0.024135367842390197,-0.0480167947678691,-0.8049372006135076,0.1953600578844963,-0.024581231688485815,-1.526177340969932,True
7.4,1.1215749915996462,2.038384013129904,9.420638782207066,-0.13494439233345107,-0.0686786200103652,-0.01702418560150967,-0.5252607912004776,0.9603825407171424,0.0064113774778736185,2.7967640941302996,True
7.5,0.6512735814275088,1.803390489644865,9.250176185260642,0.1886530435292458,0.12527370488583411,-0.19067309213840833,-0.29026726771543854,0.4900811305450049,-0.16723752905902503,2.349935234850391,True
7.6,-0.2638259848073032,2.8159008116205992,7.748849105518194,-0.12532752051321736,-0.10439644053139611,0.12556339531648666,-1.3027775896911729,-0.425018435689807,0.14899895839586996,-10.125103219757342,True
7.7,2.0925753582710205,0.9328853844657379,10.895948468888756,-0.38053042703786594,-0.06289656787112999,0.07529723704406695,0.5802378374636885,1.9313829073885167,0.09873280012345023,18.83015427154861,True
7.8,1.2193048806181788,2.2479367435508197,9.160214622107453,0.5883749011562708,0.044931470324771745,-0.25857180409725444,-0.7348135216213934,1.058112429735675,-0.23513624101787114,-13.150513590850817,True
7.9,0.3324401430364141,2.566544245335681,7.822439371128933,-0.3399973727851944,0.03635822109638235,-0.12175559696381653,-1.0534210234062547,0.17124769215391025,-0.09832003388443325,-3.186075017848613,True
8.0,0.8188476807973312,1.1016836886209969,11.764151429409806,-0.2636996426689452,-0.035069055753774996,0.027999243193828533,0.41143953330842953,0.6576552299148273,0.05143480627321182,14.648605567146841,True
8.1,1.4353885061167728,2.2152059575309004,8.579290750461949,0.6398264348085371,0.08990772403102577,-0.17042543186408543,-0.702082735601474,1.274196055234269,-0.14698986878470213,-11.135222689099034,True
8.2,-0.5809543984617981,2.3478037483209877,8.118435533750032,-0.470166952145937,0.051292578170892715,-0.17496498520363954,-0.8346805263915613,-0.742146849344302,-0.15152942212425624,-1.3259779079008727,True
8.3,0.503273528342157,1.620657190245899,11.294008484426822,-0.03330560387619445,-0.06484844746204542,0.13371238337121785,-0.10753396831647266,0.3420810774596531,0.15714794645060115,7.271465580750887,True
8.4,1.3552595103918608,2.1302812744300983,9.55487543187319,0.06952344746095408,-0.118966649854581,0.009678148808725152,-0.6171580525006719,1.194067059509357,0.03311371188810844,-5.096240841841992,True
8.5,1.4801550937097872,1.380644685498934,9.931024434335646,0.19953217084040623,0.01905730302118575,-0.08984190242486927,0.13247853643049234,1.3189626428272834,-0.06640633934548598,7.496365889311642,True
8.6,0.7445714975673451,2.666302233574008,7.235030624688099,0.1804705658487472,0.09928232209927891,-0.299506902458109,-1.1531790116445817,0.5833790466848412,-0.27607133937872574,-12.85657548075074,True
8.7,-0.33320546173954463,1.8522275751229746,10.349352384681229,-0.4972790233264838,-0.04233298868666081,-0.0529567119377183,-0.33910435319354826,-0.49439791262204846,-0.029521148858335015,8.140746584510334,True
8.8,0.8602096463486645,1.9154006448702645,10.471906127741125,0.30316938283754835,-0.16969064760308442,0.20027748965540912,-0.4022774229408381,0.6990171954661606,0.22371305273479242,-0.6317306974728987,True
8.9,2.402354445539612,2.283575322829338,7.601058594654161,-0.10505367929683389,0.04133478333263727,-0.13248829879880056,-0.7704521008999115,2.241161994657108,-0.10905273571941727,-3.6817467795907333,True
9.0,0.417011224174456,0.8289550712056273,10.80428385820034,-0.2095490445005184,0.08056308972040585,-0.36456067738597914,0.6841681507237991,0.25581877329195213,-0.34112511430659587,14.546202516237106,True
9.1,0.48404524003886523,2.4826985199897424,8.537668880283045,0.4303980700466394,-0.06029717665822953,-0.15844375023656748,-0.9695752980603161,0.3228527891563614,-0.13500818715718418,-16.53743448784115,True
9.2,0.428558204474134,2.243115065920705,8.974372796254823,-0.3753508758522099,-0.07713754793993097,0.1456287439030114,-0.7299918439912785,0.2673657535916302,0.1690643069823947,2.395834540690376,True
9.3,2.3355543639811485,1.4007999832339801,10.993917342454706,0.02913059968915642,0.10950962134853877,-0.11087460862999413,0.11232323869544625,2.1743619130986445,-0.08743904555061084,8.423150826867246,True
9.4,0.09501469516539128,2.077400573233324,8.568066675039784,0.20998272966243103,0.0325401622588327,-0.21861033382520262,-0.5642773513038974,-0.06617775571711258,-0.19517477074581932,-6.766005899993437,True
9.5,0.8629362415899106,1.6752372073811963,9.569153845311138,-0.2833879605619413,0.0709203984896833,-0.007071888784888046,-0.16211398545176992,0.7017437907074067,0.016363674294495242,4.021633658521275,True
9.6,1.0269473262000919,1.8087148314350658,10.218988953011529,0.37527883840662496,0.034336128987796116,-0.12288567970748875,-0.29559160950563945,0.865754875317588,-0.09945011662810546,-1.3347762405386954,True
9.7,-0.04026249666441715,2.3317287644047267,7.866397156648565,-0.06385464568911094,0.033082428707063335,-0.20982045547246214,-0.8186055424753003,-0.201454947546921,-0.18638489239307884,-5.230139329696608,True
9.8,0.4250102712082874,1.6233928841606111,11.095187191750732,-0.16452090663797542,-0.04347692117054165,-0.010518594312895563,-0.11026966223118473,0.2638178203257835,0.012916968766487725,7.083358802441155,True
9.9,0.5333382158782131,2.3651416711650346,9.235332697056055,0.24116362593949223,-0.0395291430564583,-0.09523135374473755,-0.8520184492356082,0.37214576499570917,-0.07179579066535427,-7.417487870044234,True
10.0,0.6762920244889483,1.6321915439584318,9.086013005286732,-0.07320566847865739,0.022963640623660606,-0.08564949142530172,-0.11906832202900541,0.5150995736064444,-0.062213928345918434,7.329501272066028,True
10.1,-0.14454070372282574,2.195934469977141,8.920597413656711,-0.0012077700917204547,0.06375037963907951,-0.17533165029302597,-0.6828112480477146,-0.30573315460532957,-0.15189608721364267,-5.637429260187092,True
10.2,-0.0007506276385990385,1.9393544056898908,9.907317046175429,-0.047651931297254535,-0.11077486798436405,0.0568166324970761,-0.4262311837604644,-0.1619430785211029,0.08025219557645939,2.565800642872502,True
10.3,1.108874253966544,1.966718171382583,9.891869337071654,-0.04978319673556312,-0.05888867638318445,-0.01476749460702398,-0.4535949494531566,0.94768180308404,0.008668068472359307,-0.27363765692692166,True
10.4,0.857491023697546,1.8433390767605147,9.637598601673075,0.2194938215782642,-0.006049329439525957,-0.1033635075985378,-0.3302158548310883,0.6962985728150421,-0.07992794451915451,1.233790946220683,True
10.5,0.19971125679337953,2.290380085202556,8.258579596647659,0.028805721831861364,0.06077954518581302,-0.21029301298199057,-0.7772568632731296,0.03851880591087567,-0.18685744990260728,-4.470410084420413,True
10.6,-0.3278848050386113,1.8814338180925552,10.276123439665506,-0.3530005441474268,-0.09729774821001518,-0.02053529382402375,-0.3683105961631288,-0.4890772559211152,0.002900269255359536,4.089462671100008,True
10.7,1.4624816614484524,1.6663477992789872,10.528921984668663,0.28582523933454457,-0.11205807074132108,0.07190862733650537,-0.15322457734956085,1.3012892105659486,0.09534419041588865,2.1508601881356793,True
10.8,0.7752159425134713,2.2744871297121576,8.09009876569587,0.0636993721858696,0.07636914355563085,-0.18206371638093558,-0.7613639077827312,0.6140234916309674,-0.15862815330155228,-6.081393304331703,True
10.9,0.4222086767486374,1.9896201584710962,9.9296550543203,-0.12208335902278203,-0.005263547008768069,-0.07293863345795089,-0.4764969365416698,0.2610162258661335,-0.049503070378567604,2.848669712410614,True
11.0,0.3628892092149785,2.1144573209626314,9.185820746288794,0.11358525335947577,-0.01656111042288198,-0.11783772038109866,-0.601334099033205,0.20169675833247466,-0.09440215730171538,-1.248371624915352,True
11.1,0.3897432071167105,2.0304414559211663,9.793782213151019,-0.18179881270031054,-0.10548920240269097,0.05404176098194784,-0.5173182339917399,0.22855075623420665,0.07747732406133112,0.8401586504146508,True
11.2,1.311554414995561,1.525654911738078,9.46707036131557,0.025494773459463344,-0.003275550416199484,-0.06559848957237006,-0.012531689808651603,1.1503619641130571,-0.04216292649298678,5.047865441830883,True
11.3,0.40321425601738803,1.9564294528498964,9.435040111133109,0.13338897403364366,0.06945708621079778,-0.0895228001873056,-0.44330623092047006,0.24202180513488417,-0.06608723710792232,-4.3077454111181845,True
11.4,0.47030206499631616,2.0416022648595704,9.017365243008815,-0.07609690848274905,0.032564665706952545,-0.09679802879860236,-0.528479042930144,0.3091096141138123,-0.07336246571921907,-0.8517281200967397,True
11.5,0.04692227216707626,2.033289340856186,10.523006010816305,0.045407047014546474,-0.038340841926425936,-0.007997001921908189,-0.5201661189267595,-0.1142701787154276,0.015438561157475099,0.0831292400338457,True
11.6,1.17660336942298,1.8611197448510453,9.447792501254776,0.02278541246194896,-0.025701728549277356,-0.020146871708411278,-0.34799652292161887,1.0154109185404763,0.00328869137097201,1.721695960051406,True
11.7,0.22019739804776572,2.3144378325433035,10.058172499149721,0.04965807299845566,-0.017982327165188234,-0.10106828228826863,-0.8013146106138771,0.05900494716526186,-0.07763271920888534,-4.533180876922582,True
11.8,1.323047274822768,1.7436648690077317,9.63811997858715,-0.056010330775227476,-0.016172071775290564,-0.0025009924754394166,-0.23054164707830527,1.1618548239402642,0.02093457060394387,5.707729635355718,True
11.9,0.8264606995381997,1.9522226547149064,9.646332618041844,0.28403907132600964,0.08500466907578084,-0.17852142888996325,-0.43909943278548,0.6652682486556958,-0.15508586581057995,-2.0855778570717476,True
12.0,0.2126832081728366,2.3972862982227388,7.903925936001104,-0.11889440306456628,0.019735518670668903,-0.13655441357656217,-0.8841630762933124,0.05149075729033273,-0.11311885049717889,-4.450636435078323,True
12.1,0.47897943142337024,1.4004197978188848,10.568259752897054,-0.09437613757719944,0.043791389928654535,-0.060536886049467005,0.11270342411054157,0.3177869805408664,-0.037101322970083714,9.968665004038538,True
12.2,0.1076028074426413,2.3443856736430244,8.206451965739987,0.1369973836279938,0.0887066580771285,-0.18674005652267317,-0.831262451713598,-0.05358964343986257,-0.16330449344328987,-9.439658758241395,True
12.3,-0.7046170706848794,1.7077688944773184,10.66796830614295,-0.3307194562355686,0.01191001373110717,0.07360832215534718,-0.194645672547892,-0.8658095215673833,0.09704388523473047,6.36616779165706,True
12.4,0.6410255501654175,1.6889311448602125,9.947569730356761,0.311620680834664,0.02663730098101448,-0.03196543573201543,-0.17580792293078606,0.4798330992829136,-0.00852987265263214,0.18837749617105937,True
12.5,-0.5757476997107726,2.7376640994618406,8.372587836153933,0.09920080058745867,0.00794989768270582,-0.15115400043582677,-1.2245408775324143,-0.7369401505932764,-0.12771843735644348,-10.487329546016282,True
12.6,-0.43385843182774664,1.925032724664447,9.066351413102298,-0.28318500642536976,-0.048648241673379895,0.010082769975139743,-0.4119095027350206,-0.5950508827102505,0.03351833305452303,8.126313747973937,True
12.7,0.21086218779047708,1.1336241776520275,10.778165953035986,-0.1166390940877227,-0.04352271281329789,0.0129070664803129,0.3794990442773989,0.049669736907973216,0.036342629559696187,7.914085470124195,True
12.8,0.0030747404370904084,2.234556668793669,9.116232221066472,0.43397850634753177,0.006364642823862131,-0.11217819757441554,-0.7214334468642425,-0.15811771044541345,-0.08874263449503225,-11.009324911416414,True
12.9,-1.0602062790126383,2.6024380480465164,8.541892394192388,-0.27419255684176064,-0.16352498207069732,0.020638148737723582,-1.08931482611709,-1.221398729895142,0.04407371181710687,-3.6788137925284747,True
13.0,1.0360897024608284,0.9517511144197489,11.38802414300431,-0.1997291514005522,-0.08827702482297481,0.1831598986509717,0.5613721075096775,0.8748972515783245,0.206595461730355,16.506869336267673,True
13.1,1.3028957118666762,1.8838936194695235,9.528210830320594,0.37320130115088584,-0.016875200069001926,-0.25042371568214483,-0.3707703975400971,1.1417032609841724,-0.22698815260276153,-9.321425050497746,True
13.2,-0.23568729795252089,2.14676341589595,9.0955456876216,0.020342108423081616,-0.05530840244259343,-0.09652416547586208,-0.6336401939665237,-0.39687974883502475,-0.0730886023964788,-2.628697964264266,True
13.3,0.421632406833955,1.9742370319968785,10.07707070515719,-0.028850094556612506,-0.05165891775238002,0.002526717776235786,-0.4611138100674521,0.2604399559514511,0.025962280855619073,1.725263838990716,True
13.4,0.5335675724278964,2.289187679769613,9.073595893461638,0.1579381263101648,-0.04322521817760036,-0.03018873707448812,-0.7760644578401867,0.37237512154539254,-0.006753173995104833,-3.1495064777273463,True
13.5,0.7301136886110927,1.524867665517191,9.756570402180111,-0.321779481322246,-0.024314991438260214,-0.04642836894495129,-0.011744443587764719,0.5689212377285888,-0.022992805865568,7.64320014252422,True
13.6,0.6261233777063163,1.4663435901747357,10.949623507638206,0.1989447736219264,0.020582611517563434,-0.12746602610205665,0.04677963175469069,0.46493092682381243,-0.10403046302267337,0.5852407534245541,True
13.7,0.08457800064773141,2.797908462735264,8.57856087916391,0.21932707689700864,-0.056745494394092176,-0.01125978437347466,-1.2847852408058376,-0.07661445023477245,0.012175778705908628,-13.315648725605282,True
13.8,1.272133824955958,1.3644235271209348,10.088784008381804,-0.2835035544965367,-0.007255049924957063,0.03120549480759709,0.14869969480849154,1.1109413740734542,0.05464105788698038,14.334849356143291,True
13.9,0.36319043883405905,1.7158467778410746,10.172769826539364,0.3168563920824217,0.11981293440854747,-0.2655687608587672,-0.20272355591164826,0.20199798795155519,-0.24213319777938389,-3.514232507201398,True
14.0,-1.0058658974618346,3.1516799915769673,8.52087225670021,0.07259018260076648,-0.050498955216654366,0.0015616390712901475,-1.638556769647541,-1.1670583483443384,0.024997202150673435,-14.358332137358927,True
14.1,0.6227600430634402,1.3011235155734475,9.160407385336834,-0.3092551621666898,0.009322246465817285,0.02866437757924912,0.21199970635597887,0.46156759218093635,0.05209994065863241,18.505564760035195,True
14.2,-0.5204256246208743,1.407341596673248,10.80052903270906,-0.061365848206245466,-0.07477945825773226,-0.11383384259600132,0.10578162525617829,-0.6816180755033782,-0.09039827951661804,-1.0621808109980058,True
14.3,0.7059096112060318,2.5770494322239057,8.581732818458049,0.5423415630859748,-0.05409973038801855,0.12076348697419975,-1.0639262102944793,0.5447171603235279,0.14419905005358305,-11.697078355506575,True
14.4,-0.2019684739502419,2.3577874704461337,7.726585896977229,-0.48553555544328025,0.035218834393265605,-0.15617732318480848,-0.8446642485167073,-0.36316092483274576,-0.13274176010542518,2.19261961777772,True
14.5,0.3020393617255798,0.7299716412534931,11.670147410447289,-0.13859049353886085,-0.10068504648315306,0.10216171780272777,0.7831515806759333,0.14084691084307596,0.12559728088211106,16.278158291926406,True
14.6,0.4833880299359885,2.5041639688368913,8.068321634578357,0.365716433737326,0.004304857454942178,-0.16076386977129065,-0.9910407469074649,0.3221955790534846,-0.13732830669190735,-17.74192327583398,True
14.7,0.07505876941046416,1.7699473068639728,8.897275770641198,-0.3022161816195841,-0.017897313706195666,0.06150790922330437,-0.25682408493454645,-0.0861336814720397,0.08494347230268766,7.342166619729184,True
14.8,0.365075200817262,1.8531681157220259,10.276898758191834,0.03175106547263144,0.06417718731885037,-0.15426755393742314,-0.3400448937925995,0.20388274993475816,-0.13083199085803984,-0.8322080885805305,True
14.9,-0.3612987815375382,2.0119992278135697,9.117372757456158,0.015307939834113193,-0.06468745490061939,0.08660761593428586,-0.49887600588414327,-0.522491232420042,0.11004317901366914,-1.5883111209154377,True
15.0,0.6393707372940449,1.3426010326555933,9.264477021171452,-0.15561431162541317,0.058353410643429714,-0.021401169430482526,0.1705221892738331,0.47817828641154103,0.002034393648900762,6.693981951579763,True
15.1,0.09143045847530151,1.167120030249431,9.83486829363731,-0.066560542254857,-0.015887542392864332,-0.11483553758955153,0.3460031916799955,-0.06976199240720235,-0.09139997451016825,1.7548100240616238,True
15.2,-0.003449031790068414,0.9333475285426337,9.591241978352423,0.17491705958556703,-0.027359348597285726,-0.10153019943868895,0.5797756933867927,-0.16464148267257228,-0.07809463635930566,2.3377250170679718,True
15.3,-0.0321928704735598,1.8800966352486672,8.695158626901039,-0.00791116293355397,0.016171096005170697,-0.07696623757275121,-0.3669734133192408,-0.19338532135606368,-0.05353067449336793,-9.467491067060335,True
15.4,-0.3247572078110063,1.4081275379238232,10.164238147305442,-0.07130978236510446,-0.07729972951835684,0.1223840525046478,0.10499568400560322,-0.48594965869351014,0.1458196155840311,4.71969097324844,True
15.5,0.5331094962880142,1.113871319527492,8.947852311873394,0.07143695136960505,0.11802188834893296,-0.06372396026709005,0.3992519024019343,0.3719170454055103,-0.04028839718770677,2.942562183963311,True
15.6,-0.963308854807067,1.6943328717993356,9.980514268080691,-0.1274567274634972,-0.0207521068514379,0.0007107266460249269,-0.18120964986990917,-1.1245013056895707,0.024146289725408214,-5.804615522718435,True
15.7,0.7883050027246876,0.600047271320862,8.888317746375158,0.014859666242761239,0.05765292285867096,0.002623871603107007,0.9130759506085644,0.6271125518421837,0.026059434682490293,10.942856004784735,True
15.8,-1.115419635809497,1.045729571610954,9.589979947052107,-0.09159750999039364,0.07470869430306311,-0.14814308721803682,0.46739365031847235,-1.2766120866920008,-0.12470752413865353,-4.45682300290092,True
15.9,-0.005792430306994549,0.9978066923132733,9.861946625402526,-0.1278863812584802,-0.13224758217173152,0.1902995557842882,0.515316529616153,-0.16698488118949842,0.2137351188636715,0.47922879297680687,True
16.0,0.751795701951416,0.2849237288321455,10.800702829179464,-0.0327857482648909,-0.027816723896246974,-0.06196020839805821,1.2281994930972808,0.5906032510689121,-0.038524645318674916,7.128829634811278,True
16.1,-0.033986234614704534,0.7664695483375462,8.135322745175777,0.4199002386461003,0.11019261954464046,-0.1948831988124247,0.7466536735918802,-0.1951786854972084,-0.1714476357330414,-4.815458195054006,True
16.2,-1.4487643642175496,1.2001389642618794,9.490604089972408,-0.49423041496167675,0.025146954065465542,-0.10095442989706642,0.312984257667547,-1.6099568151000534,-0.07751886681768314,-4.336694159243331,True
16.3,0.17620982719806605,0.7730741448196373,11.272113067657877,0.2521642507750011,-0.2176021639663339,0.3050969728585082,0.7400490771097891,0.015017376315562186,0.32853253593789145,4.27064819442242,True
16.4,1.5204077217442546,0.8241330839660019,7.985147496880651,-0.04567672923221608,0.1399668838484836,-0.17132017089551738,0.6889901379634245,1.3592152708617509,-0.14788460781613408,-0.5105893914636461,True
16.5,-1.6376552646781593,0.6630827500032624,10.04587003700367,-0.06815539207375663,0.17128476772385667,-0.2333234525682145,0.8500404719261639,-1.798847715560663,-0.2098878894888312,1.610503339627395,True
16.6,-0.7737065941123307,0.5472640223433133,8.381704447614636,-0.06960217344231698,-0.08924249610268796,0.09672434496430002,0.9658591995861131,-0.9348990449948346,0.1201599080436833,1.1581872765994916,True
16.7,0.24000702266327456,0.011119219538765842,10.778883804948817,-0.17345430511849202,-0.07195920742979359,0.11980456533985434,1.5020040023906605,0.0788145717807707,0.14324012841923764,5.361448028045473,True
16.8,-0.27829726395568893,1.6162237351768456,10.073902836595474,0.47648159347717894,-0.16544368106068885,0.09577978269639519,-0.1031005132474192,-0.43948971483819277,0.11921534577577847,-16.051045156380795,True
16.9,0.8648919690785093,1.0824546127870576,8.014300701099454,-0.10293580477218625,0.0031280358641159346,0.04711166589910175,0.4306686091423688,0.7036995181960054,0.07054722897848503,5.33769122389788,True
17.0,-0.3735111494501308,-0.19676652971092595,10.95750450460385,-0.25306564430955536,0.17196201963298954,-0.26157760174794054,1.7098897516403524,-0.5347036003326346,-0.23814203866855724,12.792211424979834,True
17.1,-0.7655500921812762,2.4355385004449777,9.545687935724617,0.3932451364374276,-0.058562184400482074,0.034781567651841004,-0.9224152785155513,-0.9267425430637801,0.058217130731224295,-26.323050301559036,True
17.2,0.44869643894876793,1.783005787997646,8.906460248167939,-0.04837830672213824,-0.04372314771426305,0.2170473094744601,-0.2698825660682196,0.2875039880662641,0.2404828725538434,6.525327124473317,True
17.3,0.4686277668010146,0.4845525291840135,9.645412274319035,-0.15651215568390683,0.15307124956154583,-0.20469629990133126,1.0285706927454128,0.3074353159185107,-0.18126073682194796,12.984532588136323,True
17.4,-1.4880036883006147,1.6505042561510788,11.012713892876821,0.12176068324165176,0.03517991944173799,-0.11960271386929998,-0.13738103422165238,-1.6491961391831185,-0.0961671507899167,-11.659517269670651,True
17.5,-0.20776211595044888,1.9838608277158334,7.716472242487619,0.30759766911399505,-0.07917183405311581,0.1004656128177368,-0.470737605786407,-0.36895456683295275,0.12390117589712009,-3.3335657156475462,True
17.6,-0.23388065044605602,1.6393313451732914,9.589835665818432,-0.48753453902180177,-0.005726041117538301,-0.04378390916874874,-0.126208123243865,-0.3950731013285599,-0.020348346089365452,3.44529482542542,True
17.7,-0.41154901058191573,1.157372656548793,10.817890116692492,0.11412601524721769,-0.01979666758283207,0.02956829068088124,0.35575056538063343,-0.5727414614644196,0.05300385376026453,4.819586886244984,True
17.8,-0.09005479200008337,2.472041165368094,9.060043482903248,0.36019675575173177,-0.054863560958507744,0.054358246296767214,-0.9589179434386674,-0.25124724288258726,0.0777938093761505,-13.146685088193008,True
17.9,0.5009200197883099,2.4678435241763843,7.473442662701996,-0.05406711831561107,-0.08348660411515417,0.014120058621822335,-0.9547203022469579,0.339727568905806,0.03755562170120562,0.04197641191709511,True
18.0,-0.14053621413855605,1.2170374297902102,10.842303917948541,-0.41377149342047387,0.05795082485386838,-0.23789176735708562,0.29608579213921615,-0.3017286650210599,-0.21445620427770232,12.50806094386174,True
18.1,-0.6514780945128745,2.1815294479812164,9.717692810741854,0.475072143606236,-0.10073838523292779,0.09272374637236833,-0.66840622605179,-0.8126705453953784,0.11615930945175161,-9.644920181910061,True
18.2,1.312280460831236,2.225839780193596,8.32484640501713,-0.23860538795116207,0.047332059095059414,-0.04570977470170002,-0.7127165582641697,1.1510880099487322,-0.02227421162231673,-0.4431033221237968,True
18.3,-1.019635455361186,1.6992296430065237,11.14081575761128,0.04832731019059251,0.14707309444592803,-0.23574916876685337,-0.1861064210770973,-1.1808279062436897,-0.21231360568747007,5.2661013718707235,True
18.4,-0.911583414000834,2.2717781538369133,8.608678812622818,0.09561500706301955,-0.06758182106814717,0.10229237447752597,-0.7586549319074869,-1.0727758648833379,0.12572793755690925,-5.725485108303896,True
18.5,0.7592631147350282,1.9849294743103214,9.846096626461307,-0.12695509975435038,-0.044721754839995895,0.09028966576654372,-0.471806252380895,0.5980706638525243,0.113725228845927,2.8684867952659188,True
18.6,0.08787863076314599,1.754330237743471,9.297973599851014,0.08907846420276244,0.026126798492096173,-0.12546610007764575,-0.2412070158140447,-0.07331382011935787,-0.10203053699826246,2.3059923656685033,True
18.7,-0.22153665879451598,1.7214130222747617,9.461820928360932,-0.11231649561757903,0.02085394829388277,-0.04525603491207605,-0.20828980034533529,-0.38272910967701984,-0.02182047183269276,0.32917215468709404,True
18.8,-0.18336567482825805,1.6441379757076995,9.703661980249045,0.13437464963772072,0.024602368051680937,-0.024148646222568817,-0.1310147537782731,-0.34455812571076194,-0.0007130831431855292,0.7727504656706219,True
18.9,-0.09137927331996401,1.9219730617483703,8.966394494970954,-0.0645333660522628,0.04307039643352612,-0.0646890332134094,-0.40884983981894396,-0.2525717242024679,-0.04125347013402611,-2.7783508604067086,True
19.0,-0.3091038898730416,1.4912479684249085,10.556359558947719,-0.09938578782205962,-0.007354560516507671,0.009963746722897316,0.02187525350451791,-0.4702963407555455,0.033399309802280605,4.307250933234618,True
19.1,0.17916425137824574,1.7857702918960838,9.007642324068982,0.22713832439659978,0.08228330249307626,-0.053245030835670844,-0.27264706996665744,0.017971800495741874,-0.029809467756287556,-2.9452232347117535,True
19.2,-0.7921065334406231,1.3941523978232455,8.034250326650453,-0.1885741874956296,0.1507310819143422,-0.10979895699759064,0.11897082410618087,-0.953298984323127,-0.08636339391820735,3.916178940728383,True
19.3,-1.089312233720072,1.0209854458715795,10.434015262142973,-0.2449388533670721,0.026850331648231557,0.07589543376106764,0.4921377760578469,-1.2505046846025758,0.09933099684045092,3.7316695195166605,True
19.4,-0.2739216034465864,1.2833020441449379,9.540318127765925,0.38635162313055144,0.012757143051490023,0.04327550138325465,0.22982117778448852,-0.4351140543290902,0.06671106446263794,-2.623165982733584,True
19.5,-1.1380278887193367,1.972713094379282,8.300794830243811,-0.21511930011215297,0.10651480493828464,-0.09812726580136381,-0.4595898724498557,-1.2992203396018405,-0.07469170272198053,-6.894110502343442,True
19.6,-1.630563884556731,0.42511536459849575,11.140353760107034,-0.025361925263494994,0.07582473331093098,0.03622876388265505,1.0880078573309306,-1.7917563354392347,0.05966432696203834,15.475977297807862,True
19.7,-1.1758049921956994,1.84335815571727,7.384394258466372,0.3646654129140418,0.0700437006054078,0.012881973649337715,-0.33023493378784363,-1.3369974430782032,0.036317536728721005,-14.182427911187743,True
19.8,-2.0462777494488673,1.7550445640872416,10.185761733965121,-0.45344794472509903,0.04446796990210087,0.013474573957300288,-0.24192134215781524,-2.2074702003313713,0.036910137036683575,0.8831359163002839,True
19.9,-1.7749329615744296,0.8300897521722868,9.429266763721733,0.10545171278660015,-0.061827853467065104,0.11017377750686279,0.6830334697571396,-1.9361254124569334,0.13360934058624607,9.249548119149548,True
20.0,-1.0513682793599093,0.03828145758683039,10.487963469093144,-0.4527934532266408,-0.08349705137011267,0.26716313461400754,1.474841764342596,-1.212560730242413,0.2905986976933908,7.918082945854563,True
20.1,-0.5657387097536785,0.5202188502793501,9.464367947342451,0.6855037471729024,-0.0513228509999753,0.05730867752358357,0.9929043716500763,-0.7269311606361823,0.08074424060296685,-4.819373926925197,True
20.2,-1.377900201810176,1.4287561379005258,7.940926690330994,-0.16539273482242467,-0.07354197095358982,-0.02990317011472845,0.08436708402890059,-1.5390926526926798,-0.006467607035345161,-9.085372876211757,True
20.3,-1.3017023228487823,1.3070081284862973,11.398300595318828,-0.03913797134727196,-0.09631798183374748,0.04767283827716977,0.20611509344312906,-1.462894773731286,0.07110840135655305,1.2174800941422848,True
20.4,-0.5400398316724253,0.9630654327308478,9.860340888065295,0.04338968944466612,-0.07183325865107539,0.13291182850901936,0.5500577891985786,-0.7012322825549292,0.15634739158840266,3.4394269575544953,True
20.5,-0.36115073470689224,0.8036436547669273,9.551365230955566,0.26493373712796775,0.010563883702117305,0.009696125840648441,0.709479567162499,-0.5223431855893961,0.03313168892003173,1.5942177796392043,True
20.6,-1.2680009447740233,1.6782073074411172,8.028932264872623,0.007966823387483925,-0.08382441422697878,-0.019646108806696243,-0.16508408551169085,-1.429193395656527,0.003789454272687044,-8.7456365267419,True
20.7,-0.3064984020378076,1.350079393837206,12.129433330545032,-0.15152108108605072,-0.08176643294313868,0.08009611874224805,0.1630438280922204,-0.46769085292031143,0.10353168182163133,3.2812791360391125,True
20.8,-0.8414190189923533,1.3126056511427395,7.578986700836317,0.36822645083184574,0.11201072945473398,-0.183925958998955,0.20051757078668686,-1.0026114698748572,-0.1604903959195717,0.3747374269446646,True
20.9,-1.8751118986639106,0.5093964688964379,10.145993629026679,-0.6658731606943388,0.0180114759703198,0.12384381933012523,1.0037267530329885,-2.0363043495464144,0.14727938240950852,8.032091822463016,True
21.0,0.03370997695407844,0.4001159015691037,9.035058871801251,0.4941446494537903,0.10676223721834956,-0.007567450771203134,1.1130073203603228,-0.12748247392842543,0.01586811230818015,1.0928056732733427,True
21.1,-3.152027779793057,1.3135643057747979,9.380068903261567,-0.5197060429805054,-0.23009692671402465,0.06434546027737297,0.1995589161546285,-3.313220230675561,0.08778102335675625,-9.134484042056942,True
21.2,1.5563093604321738,-0.3160436635825714,11.070544574912846,0.14202834641023576,-0.26064131169725985,0.6013846547579508,1.8291668855119978,1.39511690954967,0.6248202178373341,16.29607969357369,True
21.3,0.38571681308960093,0.512000844535478,9.650761327149606,0.03872801955338365,0.21255234691931216,-0.39947241588472865,1.0011223773939484,0.22452436220709707,-0.3760368528053454,-8.280445081180494,True
21.4,-2.432617748052245,0.898916810510547,10.23499615055109,0.19147333256984633,-0.09876613673272147,0.09549640922033906,0.6142064114188794,-2.593810198934749,0.11893197229972234,-3.8691596597506894,True
21.5,1.1660999176304894,-0.26945533916234166,8.037367622468407,-0.2594155176600214,-0.03857913648266328,0.0027168568720993703,1.7825785610917682,1.0049074667479856,0.02615241995148266,11.683721496728886,True
21.6,-1.2426676996272055,-0.09364387211737481,11.598598611386974,-0.008868350747697082,-0.005754037132575969,-0.134367586449999,1.6067670940468013,-1.4038601505097092,-0.11093202337061571,-1.7581146704496686,True
21.7,-0.23872774488380938,0.893206236079987,7.981511085427244,0.3393746040200439,-0.219743070246136,0.2220526936388472,0.6199169858494394,-0.3999201957663132,0.2454882567182305,-9.868501081973617,True
21.8,1.2348491988071726,-0.004138198814509438,10.198260377554577,-0.4872453457224708,-0.044124799691677735,0.020999754675308093,1.5172614207439359,1.0736567479246688,0.04443531775469138,8.973444348944964,True
21.9,-0.17791134149589144,0.12644279313273754,11.281344940026521,0.28953708320096183,-0.08101333971693718,-0.08334191860082818,1.386680428796689,-0.3391037923783953,-0.059906355521444896,-1.3058099194724693,True
22.0,0.9222921693983904,0.45487138488639234,8.13088793100565,0.08689687075421615,-0.03636764397741446,0.039469640120244336,1.058251837043034,0.7610997185158865,0.06290520319962763,-3.284285917536549,True
22.1,-0.22536717266171347,-0.07381023264649283,10.336239164766893,-0.08373631362246868,0.13359689740362665,-0.12905032735831745,1.5869334545759193,-0.38655962354421736,-0.10561476427893417,5.286816175328852,True
22.2,0.4050844218164134,0.6822300619550953,9.612565444987117,-0.01669712091099052,-0.15891496712556644,0.09608201471974216,0.8308931599743311,0.24389197093390955,0.11951757779912545,-7.5604029460158815,True
22.3,1.0762435543610513,-0.3731448639921167,10.133751188364506,0.04486129251843797,0.09799705962893482,-0.16597497415282925,1.886268085921543,0.9150511034785475,-0.14253941107344595,10.553749259472118,True
22.4,-1.267403087809747,0.7913658588373289,9.61605964431677,0.14245747770651804,-0.05460624629111368,-0.06664801141594812,0.7217573630920975,-1.4285955386922509,-0.04321244833656483,-11.645107228294455,True
22.5,1.8052200666358666,0.06157964197029603,8.786256866762507,-0.13003346917398054,-0.08785747900661432,0.12061703389786389,1.4515435799591303,1.6440276157533629,0.14405259697724718,7.297862168670328,True
22.6,-0.35304344098521256,-0.40672611707915285,11.75841742445342,-0.15427309415721976,0.1339120292853723,-0.21521678304755373,1.9198493390085791,-0.5142358918677165,-0.19178121996817044,4.683057590494488,True
22.7,0.28925867050449083,0.2728627490361008,9.477775451051302,0.5553082305655845,0.07542636996249302,0.08137364470306181,1.2402604728933255,0.12806621962198697,0.1048092077824451,-6.795888661152536,True
22.8,-0.3835962612092433,0.8159030366470389,8.261471947369385,0.09516694235942028,0.19875592111361998,-0.11447467366009782,0.6972201852823875,-0.5447887120917472,-0.09103911058071454,-5.43040287610938,True
22.9,-0.679999098788405,0.08139034410774983,9.087489476382903,-0.2879286323532352,0.012946476302492852,0.01282747701343216,1.4317328778216765,-0.8411915496709089,0.036263040092815446,7.345126925392889,True
23.0,-0.9879481492427157,-0.4268545659908156,12.836421117047522,-0.05220388361281888,-0.01571491730542257,0.03867596717710195,1.939977787920242,-1.1491406001252196,0.062111530256485234,5.082449100985655,True
23.1,0.12894813381050368,1.6056156623368798,8.694656414764614,0.9319053147297284,-0.014261196508993918,0.09537871173754818,-0.09249244040745341,-0.03224431707200018,0.11881427481693146,-20.324702283276952,True
23.2,-0.3493843300137807,3.0953283704842764,7.5466952210553195,-0.24807547557517232,-0.07173639180907912,-0.1457272999708931,-1.58220514855485,-0.5105767808962846,-0.12229173689150981,-14.897127081473966,True
23.3,1.7913880694097906,1.7928304754030266,11.567442158615888,-0.04162646183964405,-0.1667358090316575,0.146069731601966,-0.27970725347360026,1.6301956185272868,0.1695052946813493,13.024978950812498,True
23.4,-0.09797807634086289,3.0511900843825246,6.496061221183171,0.5517404106572911,0.12328657115508242,-0.7567426805776685,-1.5380668624530982,-0.25917052722336675,-0.7333071174982851,-12.583596089794979,True
23.5,-2.2312700937870846,2.7246077686955306,8.669303863585643,-1.2402015161176356,-0.1147346136506705,0.18005554412753855,-1.2114845467661042,-2.3924625446695886,0.20349110720692185,3.2658231568699403,True
23.6,1.723075828005522,-0.7338873840568807,14.468993272317128,-0.613976284440864,-0.13366374190386762,0.44889553948838673,2.247010605986307,1.5618833771230183,0.47233110256777,34.584951527524105,True
23.7,0.7430003085939089,0.5147434845978508,11.409614544380972,0.3889933462899095,-0.18337837975448001,0.18528038219441303,0.9983797373315756,0.581807857711405,0.20871594527379633,-12.48630868654731,True
23.8,1.449957064193313,1.7169382215584414,6.506938338428097,0.20361446566867528,0.0337781074361547,0.1381851322307118,-0.20381499962901506,1.2887646133108093,0.1616206953100951,-12.021947369605908,True
23.9,-0.5126224337407431,1.0370597927082952,9.018807705357334,-0.5419830612585356,0.271734041284696,-0.0996031055675126,0.4760634292211312,-0.673814884623247,-0.07616754248812932,6.798784288501462,True
24.0,-1.2144908653567958,0.6457870934396069,8.924581851543667,0.10422444797591637,0.3600856210657683,-0.2803657578542799,0.8673361284898194,-1.3756833162392996,-0.25693019477489665,3.912726992686882,True
24.1,-3.7034655327701835,0.5291187297300498,7.629931862676049,-0.38874379123967323,0.2763226799254426,-0.3816436276933616,0.9840044921993766,-3.8646579836526875,-0.3582080646139783,1.1666836370955713,True
24.2,-1.533450195822809,1.2016318042673813,8.087340995106103,0.5666410704515225,-0.07638647701999245,0.24177131947788555,0.31149141766204513,-1.6946426467053128,0.2652068825572688,-6.725130745373314,True
24.3,-0.724175276027601,3.7693277658139546,4.650518807746375,0.21722798528127837,-0.05614134215369359,-0.10379165003552347,-2.256204543884528,-0.8853677269101049,-0.08035608695614019,-25.67695961546573,True
24.4,-1.90538602568258,4.027817777117359,13.647684552687926,-0.8365246024245329,-0.4563145856116673,0.47577365051391374,-2.5146945551879325,-2.066578476565084,0.499209213593297,-2.5849001130340454,True
24.5,2.833711605274042,2.965798212895418,14.441992141227818,0.5550545830779112,-0.4082328127316725,0.8244788097382335,-1.4526749909659917,2.672519154391538,0.8479143728176168,10.620195642219407,True
24.6,3.5763466912561834,2.197751626584546,6.794728429240077,0.2963427711988445,0.1365945593411995,-0.060777968635506566,-0.6846284046551194,3.4151542403736794,-0.03734240555612328,7.680465863108723,True
24.7,-1.3075073510149804,1.7271379860967468,8.519070652075708,-0.08041515798075231,0.17089400862549667,-0.2732676506890749,-0.21401476416732046,-1.4686998018974842,-0.24983208760969158,4.70613640487799,True
24.8,-1.2547881161747028,3.083847094857918,9.038064597029603,0.09349660242484761,-0.00019608394697255864,0.2152150611223042,-1.5707238729284916,-1.4159805670572065,0.2386506242016875,-13.567091087611711,True
24.9,0.5691118787620987,2.9112744972105697,10.364964999129683,-0.07939835454065675,0.06127971449866992,0.07355170085839144,-1.3981512752811434,0.4079194278795948,0.09698726393777472,1.7257259764734822,True
25.0,-0.7969796567249077,2.933690514538401,9.50717332850581,-0.04826007459116223,0.037213858881776245,-0.031453720867908624,-1.4205672926089747,-0.9581721076074116,-0.008018157788525337,-0.22416017327831383,True
25.1,0.983921077713667,1.7669018004368475,9.940456809415206,-0.03859871131907334,-0.07236418499462904,0.18964360092599522,-0.25377857850742114,0.8227286268311631,0.21307916400537852,11.667887141015536,True
25.2,0.4454093603811617,2.7375651425438683,8.70254277531088,0.2031821561423528,0.056911446373262335,-0.15617799350004233,-1.224441920614442,0.28421690949865785,-0.13274243042065903,-9.706633421070206,True
25.3,-0.1288624235932542,2.8443673367813203,9.305869456422563,0.04288479158679293,0.0009040417387189204,0.04179842285124383,-1.3312441148518939,-0.29005487447575806,0.06523398593062711,-1.0680219423745196,True
25.4,0.3790828516711134,2.839245466663953,9.119090143901007,0.01996266174128352,0.13380218601907665,-0.0748633436448659,-1.3261222447345264,0.21789040078860952,-0.05142778056548261,0.05121870117367422,True
25.5,-1.1748720375801744,3.1562063271616294,9.737172583170462,0.03917358524130048,0.0633539716595008,0.03639382254008231,-1.643083105232203,-1.3360644884626782,0.0598293856194656,-3.1696086049767658,True
25.6,0.5177267578364744,2.740082352464607,7.994563384653917,0.054570109369152936,0.06263249115110796,0.08153222011778963,-1.2269591305351806,0.3565343069539705,0.10496778319717291,4.1612397469702245,True
25.7,-0.5359305074478429,2.788694094087131,10.54817034884884,-0.2864014395550849,0.03804256914612473,-0.06351088754379615,-1.2755708721577046,-0.6971229583303468,-0.040075324464412865,-0.4861174162252402,True
25.8,-0.03980367423451754,2.632597989842719,9.518814420216081,0.4966894664081719,-0.04761427457878374,0.037211002043593074,-1.1194747679132926,-0.20099612511702142,0.060646565122976365,1.56096104244412,True
25.9,-0.49540048637885825,3.260367828754752,7.443996887223722,-0.24977005785968884,0.04889715471577266,-0.10559409995845215,-1.7472446068253256,-0.6565929372613621,-0.08215853687906886,-6.27769838912033,True
26.0,-0.3861580226479674,2.3837659452367803,11.350575871575304,-0.11178335832894323,-0.06601083283052205,0.20607130336012933,-0.8706427233073539,-0.5473504735304713,0.22950686643951262,8.766018835179716,True
26.1,0.8944815325214088,3.127378246445472,7.570934619038862,0.3809339480173496,0.06630776396764332,-0.06777689355341227,-1.6142550245160454,0.7332890816389049,-0.04434133047402898,-7.436123012086915,True
26.2,-1.0628136005289395,2.724029871639754,9.74899586354347,-0.5259870267623317,0.027065760842925543,-0.04364054151926776,-1.2109066497103276,-1.2240060514114433,-0.02020497843988447,4.033483748057178,True
26.3,0.1579546947544566,1.4260806845610359,10.27224168979101,0.17025471297356745,0.04321078850878432,0.04403395829392097,0.08704253736839052,-0.0032377561280472755,0.06746952137330425,12.97949187078718,True
26.4,-0.8106018713827597,2.1991668626502774,8.029306577499423,-0.005645813057536284,0.1587570502336571,-0.11909223245539947,-0.686043640720851,-0.9717943222652636,-0.09565666937601619,-7.730861780892415,True
26.5,-1.0744247747696476,1.49657762708633,10.11002790931364,-0.20002293797895207,-0.011199299983247498,0.06926482264776589,0.016545594843096367,-1.2356172256521514,0.09270038572714917,7.025892355639473,True
26.6,-0.7051911844943742,1.7896511187739463,9.888376991080627,0.13508839177874044,-0.08308451107424805,0.07906909860852501,-0.27652789684451995,-0.8663836353768781,0.1025046616879083,-2.930734916876163,True
26.7,0.2779416492624836,1.5661387186951232,8.962295880538699,-0.07767991580098661,-0.045365900363857514,0.10586097702350765,-0.053015496765696835,0.11674919837997974,0.12929654010289093,2.235124000788231,True
26.8,-0.5163287173938167,1.574511217006128,10.335786332189032,0.029667838977183707,0.050554645712807524,-0.07396370750177923,-0.06138799507670156,-0.6775211682763206,-0.05052814442239595,-0.08372498311004728,True
26.9,-0.6149388614142409,1.8593145234282271,8.760906629609211,0.18588615294770236,-0.0595074450914982,0.11198287299129107,-0.34619130149880073,-0.7761313122967448,0.13541843607067436,-2.8480330642209917,True
27.0,-0.3361045818318776,1.6833715198090389,9.835811599312388,-0.25973687446100796,0.08682694458451154,-0.0086492762868039,-0.1702482978796125,-0.4972970327143814,0.014786286792579388,1.7594300361918824,True
27.1,-0.5450994751459793,1.5934754151040837,9.485174846115054,0.30418182618970396,-0.038072029848377535,0.026399388713241396,-0.08035219317465736,-0.7062919260284832,0.049834951792624683,0.8989610470495513,True
27.2,-0.7692143418989378,2.0831420235761566,8.653638286236703,-0.20346623733412256,0.0014665128783542367,-0.05168618144782356,-0.5700188016467302,-0.9304067927814417,-0.028250618368440273,-4.896666084720729,True
27.3,-0.2306862908764439,1.604414751180414,11.30883944328984,-0.035353729071301236,-0.2891200757267958,0.18166258647245498,-0.09129152925098771,-0.39187874175894777,0.20509814955183828,4.787272723957425,True
27.4,1.7682272154676264,1.7889225513418228,8.50745207491055,0.2960713031963672,-0.1536557157929659,-0.02801628461192172,-0.2757993294123964,1.6070347645851226,-0.004580721532538433,-1.8450780016140866,True
27.5,-0.09311108568644405,2.300301415056869,9.549437041391919,-0.12588006029947352,-0.0651602333126349,-0.13434485260585535,-0.7871781931274426,-0.2543035365689479,-0.11090928952647207,-5.113788637150463,True
27.6,0.7852020019244951,2.103828624086231,8.82376768524477,0.16727479639258488,-0.022116566173059977,-0.016255404998412434,-0.5907054021568048,0.6240095510419912,0.007180158080970854,1.9647279097063786,True
27.7,-0.3621675015488542,2.771593259479057,11.287381232145929,-0.24707785303986707,0.048529733418995746,-0.07483956630444764,-1.2584700375496307,-0.523359952431358,-0.05140400322506436,-6.677646353928259,True
27.8,1.0314411582491094,3.0977208124142663,8.702554491429279,0.9114475086089772,-0.15814576379814166,0.04439822111543477,-1.58459759048484,0.8702487073666055,0.06783378419481806,-3.2612755293520923,True
27.9,0.4052452803575811,3.023693393121422,4.812337528471932,-0.22422597975314418,0.18355927710166972,-0.33514344368529886,-1.5105701711919954,0.24405282947507725,-0.3117078806059156,0.7402741929284451,True
28.0,-1.2320838022440335,2.4699921680324213,11.322656366605042,-0.6496328325694749,-0.08057702734234871,0.055940232859266255,-0.9568689461029949,-1.3932762531265372,0.07937579593864955,5.5370122508900055,True
28.1,1.6334733704086173,3.1518675747075533,12.638538052207034,0.0014358292186361678,-0.23015761185879866,0.3086297271360105,-1.638744352778127,1.4722809195261135,0.33206529021539377,-6.81875406675132,True
28.2,2.190318415471619,1.950359474227553,9.135745519270523,0.5309090826737357,0.23665843820123733,-0.2483811888968449,-0.43723625229812657,2.029125964589115,-0.2249456258174616,12.015081004800003,True
28.3,-1.6165938241533613,2.5471438044588095,5.115152521342418,0.08728196715965683,0.3240191051943847,-0.5083646513726341,-1.0340205825293831,-1.777786275035865,-0.4849290882932508,-5.967843302312565,True
28.4,-1.842987197162315,3.551715726532087,9.809884597407686,-0.48528173784758194,-0.24480766469778337,0.26888904926046825,-2.0385925046026605,-2.004179648044819,0.2923246123398515,-10.045719220732773,True
28.5,0.6587186832968304,2.923031163042305,10.90754117195199,-0.07598889845109516,-0.21209783828925102,0.293555103748685,-1.4099079411128785,0.4975262324143265,0.31699066682806826,6.286845634897819,True
28.6,1.3605814046991982,2.1957677813687484,10.093071721639546,0.01166500585101216,0.0036148054619252884,0.1456577315814457,-0.682644559439322,1.1993889538166944,0.169093294660829,7.272633816735565,True
28.7,1.0750973087080273,3.0398777167444604,8.265366778142184,0.2990782735985747,0.14448706486827376,-0.1493423904808748,-1.526754494815034,0.9139048578255234,-0.1259068274014915,-8.441099353757119,True
28.8,-1.6283061461519928,2.7316639683926867,7.405078634115442,-0.1315525125299359,0.2004552446343507,-0.2771628695109361,-1.2185407464632603,-1.7894985970344965,-0.25372730643155283,3.0821374835177373,True
28.9,-1.516486985784596,2.5981117714746143,11.339472487776204,-0.3431969974311879,-0.15730009352855703,0.3216173939212409,-1.0849885495451879,-1.6776794366670997,0.34505295700062416,1.335521969180724,True
29.0,1.681788423487264,2.9715267767758595,9.462591140333059,0.3991359485371323,-0.10994006922999423,0.20694284141646951,-1.4584035548464331,1.5205959726047602,0.2303784044958528,-3.7341500530124527,True
29.1,-0.3326024688401405,2.5642637526292043,7.982110544650202,-0.16508889525064963,0.14085087203474683,-0.19512725966096392,-1.0511405306997779,-0.49379491972264433,-0.17169169658158062,4.072630241466553,True
29.2,-1.007461247632089,2.816256388133721,10.073136956684415,-0.007865364460628006,-0.0842267866972854,0.14305174977181123,-1.3031331662042944,-1.1686536985145928,0.16648731285119453,-2.5199263550451656,True
29.3,0.3257249686497628,2.6525270574536437,8.841032096672526,0.06060814661159596,-0.06722574798996536,0.1744566626384741,-1.1394038355242173,0.16453251776725894,0.1978922257178574,1.6372933068007711,True
29.4,0.004738284234974882,2.220620104415786,9.500962169133256,-0.2576468375280266,0.055236631221247896,-0.0237788847012364,-0.7074968824863597,-0.15645416664752898,-0.00034332162185311127,4.319069530378576,True
29.5,-0.08631646817490721,2.375262356693102,9.503298642067426,0.20975383608415757,-0.19957543217436385,0.16451386779026095,-0.8621391347636755,-0.24750891905741107,0.18794943086964425,-1.5464225227731587,True
29.6,1.5434171661986902,3.0817160544475977,9.041960087464489,-0.14676135833650722,-0.11628544749012806,0.14595027491978657,-1.5685928325181713,1.3822247153161864,0.16938583799916987,-7.064536977544957,True
29.7,0.6009672938577473,2.177398805026533,10.470442603567742,0.0805892264153424,0.04286891321709938,-0.15175634748255282,-0.6642755830971068,0.4397748429752434,-0.12832078440316952,9.043172494210644,True
29.8,-0.2942258892309089,2.260750831942075,8.071954805940944,0.05228043798109641,0.015697153114612124,-0.04039569528743042,-0.7476276100126487,-0.45541834011341276,-0.016960132208047134,-0.8335202691554189,True
29.9,0.9820590925164746,2.7219051295198047,9.605534602025097,-0.10964809351472457,-0.05685776182647626,0.18376866654256202,-1.2087819075903783,0.8208666416339707,0.20720422962194532,-4.611542975777296,True
30.0,0.7908462086973113,2.6216621798578656,10.085458652779156,0.04731603676425684,0.015716228741796564,-0.023957329394878324,-1.1085389579284393,0.6296537578148074,-0.0005217663154950362,1.0024294966193903,True
30.1,0.4426641046141178,2.088031935550409,9.18875219570908,6.183537855094005e-05,0.1304794172777274,-0.07590819834421418,-0.5749087136209827,0.281471653731614,-0.0524726352648309,5.336302443074565,True
30.2,0.2771274343904179,2.596864825411171,8.522477828081817,0.12082191925978113,0.0826363336858599,0.006651766319941435,-1.0837416034817446,0.11593498350791406,0.030087329399324722,-5.088328898607619,True
30.3,0.31155270228322257,2.753481338753174,9.82087965114568,-0.20020654490498152,-0.011033495718437411,0.10413252241604436,-1.2403581168237474,0.1503602514007187,0.12756808549542764,-1.5661651334200277,True
30.4,0.7615025889458437,2.103059068686897,10.158258429685617,0.16291936258938394,0.1268473228594436,-0.062048744140255505,-0.5899358467574707,0.6003101380633398,-0.03861318106087222,6.504222700662767,True
30.5,-0.9677969231440515,2.6351287698003105,8.454120967719875,0.008856744261922936,0.21246484365027998,-0.08881600982084284,-1.1220055478708841,-1.1289893740265553,-0.06538044674145956,-5.3206970111341345,True
30.6,-0.3739237970852369,2.6055265260240947,9.569703170836872,-0.025361393102835566,0.053184439070099884,0.16181477410914352,-1.0924033040946683,-0.5351162479677407,0.18525033718852682,0.29602243776215786,True
30.7,-0.26095224071416945,2.642519321322958,8.263441060717817,0.0587084035122454,0.17234539774045435,-0.06882017445386054,-1.1293960993935317,-0.42214469159667334,-0.04538461137447726,-0.36992795298863346,True
30.8,-1.8162581084627096,2.498134358951714,10.33212375693513,-0.34938991279046644,0.10344515934936854,0.022234831030847856,-0.9850111370222876,-1.9774505593452134,0.04567039411023115,1.443849623712441,True
30.9,-0.6517686060520778,2.0682114422201847,9.793730762700996,0.3400230228859346,-0.07576754831733876,0.21461562041519122,-0.5550882202907583,-0.8129610569345816,0.23805118349457452,4.299229167315293,True
31.0,0.39236259360283926,2.9446218306396066,7.162609674248839,-0.05525599252583909,-0.04621899023885883,0.1339267521637771,-1.4314986087101802,0.2311701427203354,0.1573623152431604,-8.764103884194219,True
31.1,0.1110837666397468,2.38306803065631,11.737095023066273,-0.3172617534358735,-0.09123870549062484,0.07390927872663043,-0.8699448087268837,-0.050108684242757065,0.09734484180601372,5.615537999832965,True
31.2,0.18124509356651874,1.755674608127602,8.465886143900635,0.4359614837839504,0.09662795712755193,-0.17487124202155102,-0.24255138619817562,0.020052642684014882,-0.15143567894216772,6.273934225287081,True
31.3,-1.4266344064419587,2.630661639225629,8.577411526105081,-0.27220057357063276,0.07043160513729582,-0.05083962912162544,-1.1175384172962024,-1.5878268573244625,-0.027404066042242155,-8.749870310980267,True
31.4,-0.09320486050885424,2.8393358175434287,10.728582381827707,0.2059844622157499,-0.2869357804498752,0.3265585623280543,-1.3262125956140023,-0.2543973113913581,0.3499941254074376,-2.086741783177999,True
31.5,1.4678718154594912,2.3731234913435104,7.986109897852897,-0.04005259046625574,0.019032582859633263,0.0223340446980893,-0.860000269414084,1.3066793645769874,0.04576960777747259,4.662123261999183,True
31.6,-0.3214836377992026,2.3896785673369583,10.660888325227276,-0.00656098377261417,0.13492415660475632,-0.15686897660218893,-0.8765553454075319,-0.4826760886817064,-0.13343341352280563,-0.16555075993447854,True
31.7,-0.9303742012825312,2.7231253304091174,7.318580873801177,0.18829155860565835,0.03810949128078346,-0.07437345815283247,-1.210002108479691,-1.0915666521650351,-0.05093789507344919,-3.3344676307215915,True
31.8,-0.7703889361618041,2.034706864824246,10.742759148501822,-0.583327154359558,-0.058161171445438184,0.19754087985904872,-0.5215836428948195,-0.931581387044308,0.22097644293843202,6.884184655848715,True
31.9,1.3297775626347321,2.1832638092569012,10.404686641384744,0.6424927207795772,-0.22682561923704914,0.2300018469698726,-0.6701405873274748,1.1685851117522283,0.2534374100492559,-1.4855694443265532,True
32.0,1.005795200857924,3.1664384381135853,6.559407670024061,-0.0774983190274212,0.24080763235715857,-0.2671161167737979,-1.6533152161841589,0.8446027499754202,-0.24368055369441458,-9.83174628856684,True
32.1,-2.2662563963432283,2.2760419232612463,11.183434582252985,-0.3811390732556067,0.1696200889504957,-0.1226739082873209,-0.7629187013318199,-2.4274488472257323,-0.09923834520793762,8.903965148523389,True
32.2,-0.3369493599538957,2.0583126115842596,9.680269749186282,0.3003065636401298,-0.06931311398036118,0.2298787768302505,-0.5451893896548332,-0.4981418108363995,0.25331433990963376,2.1772931167698673,True
32.3,0.16428778645962186,2.6311889417558314,7.33080066212654,0.023293511158525095,0.09850687705633056,-0.036695817390277954,-1.118065719826405,0.003095335577117997,-0.013260254310894667,-5.728763301715718,True
32.4,-0.8860301240691856,2.5743986976754027,10.325603391731308,-0.3217160701815358,-0.08241093879611983,0.09725110491560458,-1.0612754757459764,-1.0472225749516895,0.12068666799498787,0.5679024408042865,True
32.5,0.251387438983017,1.9241639999918287,10.858298622200454,0.22489326875742313,-0.09070563337045746,0.03292339718063624,-0.41104077806240236,0.09019498810051316,0.05635896026001953,6.50234697683574,True
32.6,-0.2907126477923752,2.8094644198454,7.562759252528571,0.18929728792507614,-0.022279143449638623,-0.05859175111553784,-1.2963411979159736,-0.45190509867487905,-0.035156188036154556,-8.85300419853571,True
32.7,0.059075544688078054,2.6452344318527583,9.991874708597098,-0.3239660569710873,-0.10463740365698075,0.10436351307852426,-1.132111209923332,-0.10211690619442582,0.12779907615790756,1.6422998799264166,True
32.8,0.6656225136502766,1.9701808688227151,10.483545988308308,0.26646985876007007,-0.10135380167999562,0.043573479390182614,-0.45705764689328876,0.5044300627677727,0.0670090424695659,6.750535630300432,True
32.9,0.4358802345836272,2.786440225433935,7.549921509792436,0.10871070072181466,0.09862700584309841,-0.14553767784860866,-1.2733170035045085,0.27468778370112334,-0.12210211476922538,-8.162593566112196,True
33.0,-0.9301317274474696,2.902360291592463,10.78129422479656,-0.3911818373151628,-0.10906726775003937,0.01844436881379718,-1.3892370696630365,-1.0913241783299734,0.04187993189318047,-1.1592006615852801,True
33.1,1.9532449544829573,1.5564510269801615,9.565055195063204,0.3165777137800681,-0.20654824318167705,0.22003238588489166,-0.04332780505073508,1.7920525036004535,0.24346794896427496,13.459092646123013,True
33.2,1.0602347137238322,2.6249563612920843,8.249216212694835,-0.19983584635407933,0.2174655662030786,-0.3097802648194715,-1.111833139362658,0.8990422628413283,-0.28634470174008825,-10.685053343119227,True
33.3,-1.008215768469297,2.219879942965557,10.678041845066746,0.23106676495066347,-0.09553913105475871,0.05605736305772714,-0.7067567210361305,-1.1694082193518007,0.07949292613711043,4.050764183265274,True
33.4,0.8254083311018509,2.2242431032997767,5.636338417036535,-0.02839556547229366,0.24926279548716937,-0.15716648521509707,-0.7111198813703503,0.664215880219347,-0.13373092213571378,-0.043631603342197955,True
33.5,-2.527755244332514,1.9646700219573465,13.684777895651475,-0.6967122943353963,-0.02193759085260198,0.11406962725213995,-0.45154680002792014,-2.688947695215018,0.13750519033152325,2.595730813424302,True
33.6,1.9691509215399867,1.6295882259880263,7.289925341641673,1.0024801232070881,-0.08018749483335215,0.2660508924287374,-0.11646500405859994,1.807958470657483,0.2894864555081207,3.350817959693202,True
33.7,-1.007745845518252,3.071349609926617,7.901655147227208,-0.8058548792799386,0.1899749698895183,-0.25794522087081834,-1.5582263879971905,-1.1689382964007557,-0.23450965779143504,-14.417613839385904,True
33.8,-0.03776431593478109,1.5466965347667945,13.400611348237637,0.15630744200631927,-0.312859037942515,0.3901929971848553,-0.033573312837368086,-0.19895676681728497,0.41362856026423855,15.246530751598224,True
33.9,1.2727384240341832,2.0631487010454133,6.122122582168641,0.4271188819214027,0.2565667817025662,-0.32818843386913366,-0.5500254791159869,1.1115459731516795,-0.3047528707897504,-5.164521662786187,True
34.0,-2.9167700512776147,2.280911015567544,10.6240899581788,-0.5242147466292875,-0.01457796886161172,-0.002685779905331767,-0.7677877936381174,-3.0779625021601187,0.02074978317405152,-2.1776231452213057,True
34.1,1.4056882972068314,2.259138038404421,9.321263764729137,0.48501783146192506,-0.3020202292013539,0.41094351320048134,-0.7460148164749947,1.2444958463243276,0.4343790762798646,0.21772977163122764,True
34.2,0.89489511042993,2.9297663708022927,9.549363230542355,-0.29828389251106724,-0.02169570874777226,-0.06940673920633063,-1.4166431488728664,0.7337026595474261,-0.045971176126947344,-6.706283323978717,True
34.3,0.7193607398797676,1.645063984216298,9.969607542633831,0.21510595248643435,0.02008732681109463,-0.03702634808112286,-0.13194076228687157,0.5581682889972637,-0.013590785001739571,12.847023865859947,True
34.4,-0.7666848034255919,2.4520212090937865,8.208927034296181,0.025775292239286186,0.22264150629051446,-0.17755931698319374,-0.9388979871643601,-0.9278772543080958,-0.15412375390381045,-8.069572248774884,True
34.5,-0.891351840772652,2.7392795403783956,9.288213804558168,-0.030590264618593332,-0.02763293749468433,0.2026170019902114,-1.2261563184489692,-1.0525442916551557,0.2260525650695947,-2.872583312846091,True
34.6,0.34116252446079615,2.278147937811031,9.446678517405978,-0.14191685607913165,0.10951163951416254,0.030872157755420515,-0.7650247158816048,0.17997007357829228,0.0543077208348038,4.611316025673644,True
34.7,-0.9662645800992223,2.271061329654629,10.428109910639025,0.0775527093277996,0.031994487052748696,0.013294061166630396,-0.7579381077252025,-1.1274570309817262,0.036729624246013684,0.07086608156402274,True
34.8,-0.12439240204675066,2.6272569426990637,7.8860692195081254,0.18535998805326334,-0.040347326601564745,0.08573679755627808,-1.1141337207696373,-0.2855848529292545,0.10917236063566137,-3.561956130444348,True
34.9,-0.1346434398877943,2.5508533326194076,9.540522443018913,-0.3311717607262887,-0.006305190038794488,0.10298565201618287,-1.0377301106899812,-0.29583589077029815,0.12642121509556617,0.7640361007965613,True
35.0,-0.16385866254396708,1.9868451250317387,10.579038523656973,0.11857301197103191,0.05146289495833936,-0.005101543119185937,-0.4737219031023123,-0.325051113426471,0.018334019960197352,5.6400820758766885,True
35.1,-0.8516343184404338,2.5681677166484738,7.484742512707034,0.23860822475485563,0.09963518778759207,-0.07137176581252855,-1.0550444947190474,-1.0128267693229376,-0.047936202733145264,-5.81322591616735,True
35.2,-1.1613224425779562,2.6344181783896867,8.47736678867312,-0.5562585282194527,-0.027314091538041624,0.1124815178187213,-1.1212949564602603,-1.32251489346046,0.1359170808981046,-0.6625046174121296,True
35.3,0.3474786922546579,1.1320367105659337,12.699825476614627,0.050002680579073894,-0.28388451815949356,0.41574391644022307,0.3810865113634927,0.18628624137215402,0.43917947951960634,15.02381467823753,True
35.4,2.074624979077421,2.881160659834485,5.853990411612416,0.558512437108821,0.08955980523492657,-0.20923502082844894,-1.3680374379050588,1.9134325281949172,-0.18579945774906564,-17.491239492685516,True
35.5,-2.196327952331773,2.349255887319342,11.249143167545656,-0.7470853387069281,-0.07359194244517758,-0.036394739486694534,-0.8361326653899155,-2.357520403214277,-0.012959176407311247,5.319047725151433,True
35.6,2.1842279420775403,1.2924157721669882,8.56590044862675,0.5409628037564878,-0.02360947548321492,0.18634715537509888,0.22070744976243817,2.0230354911950363,0.20978271845448218,10.568401151523537,True
35.7,-1.184835534711166,2.7898057471887903,9.908148983762324,-0.4231752280776254,0.026060927610968926,-0.19942376254165417,-1.2766825252593639,-1.3460279855936699,-0.17598819946227087,-14.97389975021802,True
35.8,1.518334895159016,1.6335798529539816,8.654117637114492,0.3988040916914713,-0.11850055191398522,0.19653858130563792,-0.12045663102455517,1.3571424442765123,0.21997414438502122,11.562258942348086,True
35.9,-0.35188854748717185,2.401270617657931,9.558757377717289,-0.3861067297814495,0.10978199450162252,-0.21583106106422764,-0.8881473957285044,-0.5130809983696757,-0.19239549798484434,-7.676907647039492,True
36.0,0.649251626807961,2.0986513157143127,9.63686670343854,0.31649057047758805,-0.10783911690733912,0.17511113438605272,-0.5855280937848863,0.4880591759254571,0.19854669746543602,3.026193019436181,True
36.1,0.3302408392183153,2.330926165129944,8.399427984086575,-0.158817427717036,0.17328460999292405,-0.15353810534302376,-0.8178029432005178,0.16904838833581146,-0.13010254226364046,-2.322748494156315,True
36.2,-0.20958215175978043,2.2236362998740793,10.381398794636109,-0.007981873632610974,-0.041611453316607136,0.08501214870493724,-0.7105130779446529,-0.3707746026422843,0.10844771178432053,1.0728986525586492,True
36.3,0.6595185362527587,2.3348575578438107,8.904408714886888,0.10979618705970957,0.0035901474334784312,-0.02854462545723882,-0.8217343359143843,0.4983260853702548,-0.005109062377855533,-1.1122125796973137,True
36.4,0.26313906279382315,2.370284710877417,9.93150846281689,-0.1548289465454424,-0.06046169276156465,0.014655433879414047,-0.8571614889479908,0.10194661191131929,0.038090996958797335,-0.3542715303360655,True
36.5,1.0865577168695828,1.9091309709131756,9.955229651219753,0.15237748983685323,-0.039116092493462054,-0.03563940212507341,-0.39600774898374924,0.9253652659870789,-0.012203839045690123,4.611537399642415,True
36.6,0.3251080434287414,2.596043821151466,8.284194995491452,0.11636116724129543,0.020083881321293226,-0.08583373197031702,-1.0829205992220394,0.16391559254623753,-0.06239816889093373,-6.869128502382901,True
36.7,0.5364657609907896,2.003816908895224,9.66564994022013,-0.3005932283323463,0.03742569535524529,-0.0004861600015526791,-0.4906936869657976,0.3752733101082857,0.02294940307783061,5.922269122562418,True
36.8,0.17034703974629395,1.6127643904527282,10.141067676316892,0.21056389808869774,0.07482942274259143,-0.07301818104429462,-0.09964116852330185,0.009154588863790086,-0.04958261796491134,3.910525184424958,True
36.9,-0.4500262256304551,2.4079069283701897,8.281512765529344,-0.050571597019719416,0.08260207066626418,-0.04895989033308268,-0.8947837064407633,-0.6112186765129589,-0.02552432725369939,-7.951425379174615,True
37.0,-0.008674545555445966,1.804876762142454,10.079920879356246,-0.09785225083043321,-0.03134020773118356,0.10412584696378159,-0.2917535402130276,-0.16986699643794984,0.12756141004316487,6.030301662277357,True
37.1,0.3170326991876973,1.6852744754743296,9.385359722970952,-0.011428471284096704,0.043884341485787924,-0.02894883517145895,-0.17215125354490324,0.1558402483051934,-0.005513272092075663,1.1960228666812434,True
37.2,-0.07377964657611062,1.656954063572472,10.118226904568669,0.09229754253785218,-0.08552797040954205,0.09981785449501561,-0.1438308416430456,-0.23497209745861447,0.1232534175743989,0.28320411901857634,True
37.3,1.2710589214809287,1.9579782245020514,8.799845826241183,-0.086025838772426,-0.008204888891467312,-0.035435959422626014,-0.444855002572625,1.109866470598425,-0.012000396343242726,-3.010241609295794,True
37.4,-0.3566096187116553,1.331902814941981,11.344815158206268,-0.01948310534982184,0.015909038224535405,-0.058530255189958046,0.18122040698744546,-0.5178020695941592,-0.035094692110574754,6.260754095600705,True
37.5,0.9387966083513049,2.5059838565047032,7.965208908442562,0.44011887849460357,-0.02581804361133155,0.04706298131158117,-0.9928606345752768,0.777604157468801,0.07049854439096445,-11.740810415627223,True
37.6,0.2671534915727424,1.6203445824026388,7.531485093824176,-0.5459180522044107,0.25995769368056726,-0.22830467456392292,-0.1072213604732124,0.10596104069023851,-0.20486911148453962,8.856392741020644,True
37.7,-1.8454860123342995,0.06211997100521566,12.653943206471867,-0.22386376403858949,0.13729975046312995,-0.0483570167017222,1.4510032509242108,-2.0066784632168035,-0.02492145362233891,15.58224611397423,True
37.8,-0.007805352619903658,1.2249868738294556,6.593929482207078,0.9820732431654882,-0.013850084865121522,0.15523373843394542,0.2881363480999708,-0.1689978035024075,0.17866930151332872,-11.628669028242399,True
37.9,-1.1750149043813305,3.6856742111694674,8.550906952339615,-0.9051970574234617,-0.00600297110804204,-0.04578943494678867,-2.172550989240041,-1.3362073552638343,-0.022353871867405384,-24.60687337340012,True
38.0,0.17486833863658283,0.018072284408010536,13.973938493480098,0.029558000764452707,-0.30346398110027023,0.41904985680321166,1.4950509375214158,0.013675887754078964,0.44248541988259493,36.67601926761457,True
38.1,2.046468580291357,0.559558202210301,6.831668616904644,0.4875144344240435,0.2788939881106186,-0.3780287564187858,0.9535650197191254,1.8852761294088534,-0.35459319333940253,-5.414859178022904,True
38.2,-2.9586777216710987,2.3431535203738285,9.874723144419418,-0.2289283951603744,-0.0928490055580636,-0.1521636658548102,-0.8300302984444021,-3.1198701725536027,-0.1287281027754269,-17.835953181635276,True
38.3,1.1125332873816747,1.4246830293767747,8.315206422027423,0.0887136015447866,-0.18259644299142616,0.35610453757602417,0.08844019255265168,0.9513408364991708,0.37954010065540744,9.184704909970538,True
38.4,-0.2548070296176435,-0.20700007353110308,11.273793353913058,-0.5739267283386794,0.28172041330324976,-0.2754578703101399,1.7201232954605294,-0.41599948050014735,-0.25202230723075664,16.316831029078777,True
38.5,-0.9684322647572013,0.8531472334628848,9.922242719992969,0.6841575053154006,-0.15121814573733286,0.17560151884976558,0.6599759884665416,-1.1296247156397052,0.19903708192914887,-10.601473069939876,True
38.6,0.7632573579451132,2.0098596885422757,7.543352292056683,-0.2878946130457037,0.048661474244199615,-0.02740260678325568,-0.4967364666128493,0.6020649070626093,-0.003967043703872391,-11.567124550793908,True
38.7,-1.0753686757660712,0.1934384658299605,11.24184073192464,-0.12070399152167496,0.02338714100056044,-0.01440950204717839,1.3196847560994658,-1.236561126648575,0.009026061032204897,18.16421222712315,True
38.8,-0.08020877035690405,0.8921870129058426,9.721864782568282,0.17179261141914332,-0.023923650281711516,0.05344802762132954,0.6209362090235838,-0.2414012212394079,0.07688359070071282,-6.987485470758819,True
38.9,-0.013429415752508863,1.674320044561931,8.317967132402874,0.10739855593434702,-0.0968663428806816,0.03900344887541869,-0.16119682263250468,-0.17462186663501272,0.062439011954801976,-7.821330316560885,True
39.0,-0.32899971454285065,0.1810173523502946,10.676872845335753,-0.44853419135183087,0.040113829536327285,-0.04280856353641318,1.3321058695791317,-0.4901921654253545,-0.01937300045702989,14.933026922116364,True
39.1,-0.30402456004822653,1.1193266247865694,10.661980074274965,0.4944066227887288,-0.15630168880590473,0.08042157369072815,0.393796597142857,-0.4652170109307304,0.10385713677011144,-9.383092724362747,True
39.2,1.0473508495767176,1.8702069830995762,8.05376186726081,-0.0930719805059173,-0.1396117497117889,0.0520423374548673,-0.35708376117014984,0.8861583986942138,0.07547790053425059,-7.508803583130068,True
39.3,1.1221364874205397,1.2323365499287928,10.34189900785025,0.005560371297337236,-0.07512725395201583,-0.10689179882780607,0.28078667200063356,0.9609440365380358,-0.08345623574842279,6.378704331707834,True
39.4,0.2784914981874109,1.9102722182016332,9.522512226599224,0.12349384392954257,-0.08217327583893728,-0.062182915481063604,-0.3971489962722068,0.11729904730490706,-0.03874735240168031,-6.7793566827284035,True
39.5,0.9965346728366776,1.6182223467563808,9.531757202932592,0.03572729276792432,-0.005816857993058912,-0.02837521471687659,-0.10509912482695438,0.8353422219541737,-0.004939651637493301,2.920498714452524,True
39.6,0.2082467292555764,1.851004353367135,8.855710516504594,-0.00087692236640728,0.10918940425067859,-0.12882296241526717,-0.3378811314377086,0.04705427837307255,-0.10538739933588388,-2.327820066107542,True
39.7,0.0587978318089813,1.4951626138129537,9.705396522881411,-0.13424694197841103,0.014620509607037589,0.021040960560971263,0.01796060811647271,-0.10239461907352257,0.04447652364035455,3.558417395541813,True
39.8,0.43547255793966727,1.4869909115705295,10.313392998310885,0.05796446499670758,-0.055570096815384454,0.014741323576844547,0.02613231035889685,0.27428010705716344,0.038176886656227836,0.08171702242424139,True
39.9,1.282489767324353,1.8151187437620264,8.576236551327275,0.04936443826992191,-0.03274375459196849,-0.013442766912650799,-0.30199552183260003,1.1212973164418492,0.009992796166732489,-3.281278321914969,True
40.0,0.17131134132714518,1.3166307378431492,10.224428644795644,-0.14009357095529512,0.07578974087658444,-0.1436864235670331,0.19649248408627717,0.010118890444641315,-0.12025086048764981,4.984880059188772,True
40.1,0.4977533605530728,1.5843510830201308,9.227895469017252,0.14540411232760078,-0.07408170648590133,0.057100698565076706,-0.07122786109070445,0.33656090967056895,0.08053626164446,-2.6772034517698162,True
40.2,0.7960667269742677,0.9163657982554041,9.346453659923505,-0.21982429535702158,0.16222656895340812,-0.12226530877759782,0.5967574236740223,0.6348742760917638,-0.09882974569821454,6.679852847647267,True
40.3,-0.6662581753181633,0.8193323380782828,10.477903678893906,0.08588038405484637,0.02420590733251054,0.004104755515415073,0.6937908838511436,-0.8274506262006672,0.02754031859479836,0.9703346017712133,True
40.4,0.900937036933236,1.3202838825647785,8.34962508421135,0.11918784949838118,0.023164256727568572,0.01017116975953187,0.19283933936464792,0.7397445860507321,0.03360673283891516,-5.009515444864957,True
40.5,-0.545443049751779,0.8826698980058113,10.440318854297564,-0.30521656248631895,0.11859748132599063,-0.1249628196768262,0.6304533239236151,-0.7066355006342829,-0.10152725659744291,4.376139845589671,True
40.6,-0.15954679261941782,1.035350155159165,9.984728676672102,0.37667908372244313,-0.09735482811220192,0.11454876843676695,0.4777730667702613,-0.3207392435019217,0.13798433151615025,-1.5268025715335376,True
40.7,0.4866644972061974,1.1731482615527136,8.308200418922489,-0.22309305063077245,0.08547263866597618,-0.09550810100971571,0.3399749603767128,0.32547204632369353,-0.07207253793033243,-1.377981063935485,True
40.8,-0.343464071411279,0.7819764956546776,10.960803811067848,0.02203304678470645,-0.05656543506288081,0.0019994399438526085,0.7311467262747487,-0.5046565222937829,0.025435003023235897,3.911717658980359,True
40.9,0.5026869811147378,1.2270895231987327,8.83335019420776,0.07609817064904847,-0.009187080930973751,-0.025008085389671315,0.28603369873069373,0.34149453023223386,-0.0015725223102880277,-4.4511302754405495,True
41.0,-0.3379964424352158,0.8622324934199771,9.838306213803744,-0.030868481883061582,0.04727211784982069,-0.07600491970240379,0.6508907285094493,-0.49918889331771965,-0.05256935662302051,3.6485702977875554,True
41.1,0.1294276085374953,1.19399840626342,9.141078221316446,-0.04340891252306146,-0.01835363684327512,0.02746266063658681,0.3191248156660065,-0.031764842345008565,0.050898223715970095,-3.317659128434428,True
41.2,0.05040844114457901,0.9244466573103656,10.422421128222426,0.02636056665407397,0.015519555999370356,-0.013446422352933836,0.5886765646190608,-0.11078400973792485,0.009989140726449451,2.6955174895305434,True
41.3,-0.14760776743595935,1.1316916730923032,9.405340867030247,-0.0003271326211184856,0.04757228928429035,-0.050549256440823837,0.38143154883712316,-0.3088002183184632,-0.02711369336144055,-2.0724501578193766,True
41.4,-0.08939555703197469,0.8666114268883123,9.546507927605003,0.02783602553231745,0.05415801083864926,-0.012724634680785326,0.6465117950411141,-0.25058800791447855,0.010710928398597962,2.6508024620399095,True
41.5,-0.5418942450270815,1.9558448370447596,9.606157838149674,0.11980908219214315,0.017590904540822593,0.001663789143019146,-0.44272161511533326,-0.7030866959095854,0.025099352222402435,-10.892334101564472,True
41.6,-0.11578911072069246,2.2062972165548373,8.64684617070146,0.07617810202912889,-0.0347552283942017,0.013540825984513127,-0.693173994625411,-0.2769815616031963,0.036976389063896414,-2.504523795100777,True
41.7,-0.31490297314540905,1.1504322631855202,10.37822260368963,-0.2719134805488886,-0.025391666953994016,-0.004851487458463002,0.3626909587439062,-0.47609542402791294,0.018584075620920286,10.55864953369317,True
41.8,0.40276340359726776,1.8089813858116448,9.494659911114196,0.28356779268686694,-0.028484630580996394,-0.005054776944362849,-0.2958581638822184,0.2415709527147639,0.01838078613502044,-6.585491226261246,True
41.9,-0.5254008387235007,2.0141145831592104,9.293334795980407,-0.036162234497423146,-0.0714265751525083,0.01865065247688643,-0.500991361229784,-0.6865932896060046,0.04208621555626972,-2.0513319734756563,True
42.0,0.9370600195556058,1.7344367370185014,8.663468939348887,0.0003472241428028322,0.005736414766147344,-0.03165140881470887,-0.22131351508907504,0.7758675686731019,-0.008215845735325581,2.79677846140709,True
42.1,-1.0742528542438288,1.8110867445882453,10.787712505622409,-0.11893404319816948,0.005483832063668921,-0.08232631640665114,-0.29796352265881887,-1.2354453051263325,-0.058890753327267856,-0.7665000756974383,True
42.2,0.42347810286379267,2.583538968122952,9.245866077061514,0.2712444005350128,-0.11791176262417716,0.15222955379169054,-1.0704157461935255,0.26228565198128884,0.17566511687107383,-7.724522235347067,True
42.3,0.45337791573806807,2.8752035920306422,8.971623821693385,-0.004984558479081453,0.06307350435237806,-0.0963883048994548,-1.3620803701012159,0.2921854648555642,-0.07295274182007151,-2.9166462390769032,True
42.4,0.010145974293446398,2.7562317313843607,8.908443568641111,0.12519290698248878,-0.02453494250282541,-0.02089684895086469,-1.2431085094549343,-0.15104647658905745,0.002538714128518596,1.1897186064628151,True
42.5,0.10455550010710365,3.413092078355186,9.001160610891404,-0.1156413723446799,-0.020992699836300185,-0.023700476757515822,-1.8999688564257597,-0.05663695077540021,-0.0002649136781325348,-6.568603469708254,True
42.6,0.3579149320320928,2.5143575384415553,10.359672049979725,0.0946681870913853,-0.031076088400731543,0.04799040921916655,-1.001234316512129,0.19672248114958893,0.07142597229854984,8.987345399136307,True
42.7,-0.07299379009709052,3.0898280233197175,7.678292418134911,0.06311059842370159,0.1401307950078296,-0.2297869716560737,-1.5767048013902911,-0.2341862409795944,-0.2063514085766904,-5.754704848781622,True
42.8,-0.888993651736474,2.8278464780798034,10.17930089215668,-0.13711004591838408,-0.1430347556360762,0.17250058588115486,-1.314723256150377,-1.0501861026189778,0.19593614896053815,2.6198154523991413,True
42.9,1.075260001445318,2.61590089382619,8.367610414397568,-0.008828849523248555,0.0016054200436296183,0.0012678820986102505,-1.1027776718967635,0.9140675505628141,0.024703445177993538,2.1194558425361354,True
43.0,-0.2024032908479013,2.5429397343336686,9.94658445271508,-0.12741028863711043,0.024221495925604415,-0.040462113714718015,-1.0298165124042422,-0.36359574173040515,-0.017026550635334727,0.7296115949252124,True
43.1,-0.18835368400822677,2.694198432765284,9.882557112268302,0.0558678561350216,-0.03662910644740621,0.0016701035388602481,-1.1810752108358578,-0.3495461348907306,0.025105666618243535,-1.5125869843161555,True
43.2,0.4633008416879322,2.8611493085664894,8.165372328220881,0.14706379583965196,-0.03376444670381944,0.06741529012621429,-1.348026086637063,0.3021083908054283,0.09085085320559758,-1.6695087580120527,True
43.3,-0.07599620130698165,2.712310726591251,9.659940884190238,-0.3016670629535034,0.05589933614810934,-0.0479467985676424,-1.1991875046618248,-0.2371886521894855,-0.02451123548825911,1.4883858197523825,True
43.4,0.1292356615656017,2.243464586751464,9.800142607644204,0.22944971568667358,-0.06067745323400136,0.06320594045795827,-0.7303413648220378,-0.03195678931690216,0.08664150353734155,4.68846139839787,True
43.5,0.23563059283020427,3.285996771084206,8.46325277048538,0.014337500062846236,0.019781132385426604,-0.008387782427455323,-1.7728735491547798,0.0744381419477004,0.015047780651927965,-10.425321843327419,True
43.6,-0.13669446425947687,2.464802322348168,9.715898519504186,-0.08409195977721086,0.037502914049834905,-0.009593983602125803,-0.9516791004187415,-0.29788691514198073,0.013841579477257485,8.211944487360382,True
43.7,-0.15885345941410553,2.9602734019788444,8.93141815605687,0.13089299828727854,-0.01256881281837419,0.01951771262012091,-1.447150180049418,-0.3200459102966094,0.0429532756995042,-4.954710796306765,True
43.8,0.01405664727429308,2.7539839809888185,9.688295346612467,-0.19742668108802866,-0.026423747044722647,0.05205513119889756,-1.240860759059392,-0.14713580360821077,0.07549069427828085,2.062894209900259,True
43.9,0.4580916183436728,2.655597798098358,9.432426026947011,0.24739238877586067,-0.06331335082378743,0.01934978319688777,-1.1424745761689314,0.29689916746116896,0.042785346276271057,0.9838618289046064,True
44.0,0.18773231585034586,3.0982153473918346,8.23666821409153,-0.1263351008587964,-0.002610909557044247,-0.021867927869853927,-1.5850921254624082,0.026539864967841997,0.0015676352095293604,-4.426175492934767,True
44.1,0.08061551549736165,2.310185887733039,10.461337010335086,-0.09983514503811317,-0.038944517095866146,0.014058345424018865,-0.7970626658036124,-0.08057693538514221,0.03749390850340215,7.880294596587958,True
44.2,0.1892736058440682,2.9073152043270807,9.349185550933994,0.2171892321715042,-0.09453282716137659,0.045273291872563425,-1.3941919823976543,0.028081154961564325,0.06870885495194672,-5.971293165940419,True
44.3,0.866318529501544,3.0532123977994208,8.423467995705238,-0.11669336151529824,-0.011523362129804223,0.013057278836563059,-1.5400891758699944,0.7051260786190401,0.036492841915946345,-1.458971934723401,True
44.4,0.36579958296665205,2.1900835615496494,10.302538629591877,-0.07437735355242842,-0.006764084153709454,-0.02327568362136349,-0.6769603396202231,0.20460713208414819,0.00015987945801979736,8.631288362497713,True
44.5,0.6436830620225298,3.062338344860727,8.864124583173474,0.1865190335817102,-0.04665774036356526,0.02092989302454966,-1.5492151229313007,0.4824906111400259,0.04436545610393294,-8.722547833110776,True
44.6,0.8516933236662817,2.905029349543547,9.276560071528904,-0.18820808367099867,0.027382781293994164,0.02124237793354503,-1.3919061276141205,0.6905008727837778,0.04467794101292832,1.5730899531718023,True
44.7,0.6150116955796232,1.9361273084110622,9.433280165933184,0.05185758093017402,0.15593982508390267,-0.11616969377434469,-0.4230040864816358,0.4538192446971193,-0.0927341306949614,9.689020411324845,True
44.8,-0.9129321447559904,2.537592727023735,9.38141274170918,-0.0496612464967777,0.15158589109766032,-0.02292538367756945,-1.0244695050943087,-1.0741245956384942,0.0005101794018138386,-6.014654186126728,True
44.9,-0.35857548496342323,3.108301984906515,8.796673437172583,0.33449942307613145,0.08892682124727676,0.1368324033922552,-1.5951787629770886,-0.5197679358459271,0.1602679664716385,-5.707092578827799,True
45.0,-1.446873363635434,3.0738331561081766,7.937735614562374,-0.3531408397358883,0.2080877342632908,-0.08925702561419037,-1.5607099341787503,-1.6080658145179378,-0.06582146253480708,0.34468828798338347,True
45.1,-0.6590775147112997,2.151029748023429,11.014439465631773,-0.14528991540408934,-0.15509730828840168,0.35168202539924387,-0.6379065260940024,-0.8202699655938036,0.37511758847862714,9.228034080847477,True
45.2,1.2377839777817667,2.612156454132979,8.968975426053282,0.21561738108889245,-0.03891095521230318,-0.02710699126372719,-1.0990332322035525,1.076591526899263,-0.003671428184343902,-4.611267061095501,True
45.3,-0.9169229869571077,2.602950387974195,9.185739758182368,-0.08617722975051396,-0.034060355092965316,-0.05241933541870238,-1.0898271660447685,-1.0781154378396116,-0.028983772339319095,0.09206066158784054,True
45.4,0.3177784987602581,2.6548806310211512,8.893929676499477,0.1763394375521727,-0.03546918480099747,0.03788004878869229,-1.1417574090917249,0.15658604787775424,0.061315611868075576,-0.5193024304695637,True
45.5,-0.9499510357904096,2.9602372731952395,9.04841754891258,-0.23871046070912721,-0.019596110808463046,-0.03990569580467388,-1.4471140512658132,-1.1111434866729135,-0.016470132725290593,-3.053566421740883,True
45.6,0.5941039071116029,2.114659206629829,10.761318764608575,-0.07241513307154292,-0.2223907075447321,0.24836731202217815,-0.6015359847004025,0.432911456229099,0.2718028751015614,8.455780665654107,True
45.7,1.515385268934729,2.4991755089791012,8.516768684169554,0.2641446621673196,0.026307993427889406,-0.11553762696919133,-0.9860522870496748,1.3541928180522251,-0.09210206388980804,-3.8451630234927237,True
45.8,-0.5179039229114799,2.8347427866917547,8.595949562969812,-0.16428586607544662,0.030121635373279138,-0.08572356243878461,-1.3216195647623283,-0.6790963737939838,-0.062287999359401325,-3.355672777126535,True
45.9,0.3056309893325927,2.188628150638197,9.783014657423319,-0.014294655513503146,-0.04980428778354583,0.06431694996862469,-0.6755049287087707,0.14443853845008883,0.08775251304800798,6.461146360535577,True
46.0,0.021692816082805603,2.836237126949223,9.58503417207543,-0.06684048278700125,-0.040999225952789715,0.01841161631975862,-1.3231139050197964,-0.13949963479969826,0.04184717939914191,-6.476089763110258,True
46.1,1.2343329540514405,2.1596901045045223,9.496685392529825,0.0875330773479382,-0.11451188015039042,0.10618492492677385,-0.6465668825750959,1.0731405031689367,0.12962048800615714,6.7654702244470055,True
46.2,0.5069214026195383,2.3520470740562494,8.533278764118924,-0.125538596619258,0.08842395632692275,-0.1700996438017148,-0.838923852126823,0.34572895173703444,-0.1466640807223315,-1.923569695517271,True
46.3,0.2544683836781113,1.699513051987029,10.325098143390807,-0.05615591771666778,-0.14983378014392867,0.10842086782430276,-0.18638983005760257,0.09327593279560745,0.13185643090368604,6.525340220692204,True
46.4,1.2944183222694945,1.9465780154239274,8.461626680481244,0.1109021877348634,0.018781057743358538,-0.13126409796624827,-0.433454793494501,1.1332258713869907,-0.10782853488686499,-2.4706496343689843,True
46.5,-0.1358068004858424,2.053848109990384,10.221855512778795,-0.20574242054771086,-0.14386709763111694,0.004835970724874521,-0.5407248880609574,-0.29699925136834626,0.028271533804257808,-1.0727009456645642,True
46.6,2.1388243036652668,1.6783886071322252,9.503068210797633,0.16234076561795005,-0.1416449209551226,0.03513772368044309,-0.16526538520279876,1.977631852782763,0.058573286759826385,3.7545950285815866,True
46.7,1.0157936669210668,1.9101932553714112,9.840054693553219,-0.10451040821689447,-0.011836151053579309,-0.14051763098081446,-0.39707003344198477,0.8546012160385629,-0.11708206790143118,-2.31804648239186,True
46.8,1.5078851071461263,2.0537554228634627,9.485570496631569,0.17328026677982702,-0.11017706724740416,-0.012288196571749371,-0.5406322009340363,1.3466926562636226,0.011147366507633916,-1.4356216749205153,True
46.9,1.557105807657603,1.9358631687936017,8.898028339941499,-0.12218956576982537,0.02750224841186167,-0.12893194874631692,-0.42273994686417526,1.3959133567750992,-0.10549638566693363,1.1789225406986104,True
47.0,1.0840915894200194,1.5546466423688075,10.39637358827749,-0.05623656673436867,-0.041727141634284336,-0.10324380958825281,-0.041523420439381065,0.9228991385375155,-0.07980824650886953,3.812165264247942,True
47.1,1.7773171869135473,2.0763955228252255,9.495682970003404,0.16555490200083686,-0.14803635681843463,0.011254055030364711,-0.5632723008957992,1.6161247360310436,0.034689618109748,-5.217488804564181,True
47.2,2.3655132053053487,1.605044313994517,8.60430579798817,-0.09479565133660338,0.05844089442223281,-0.19390822621527512,-0.09192109206509058,2.2043207544228447,-0.17047266313589182,4.713512088307086,True
47.3,0.8278149840296744,1.6391218239877543,10.323524829782926,-0.07749509947835329,-0.03156854756069156,-0.15421475662095085,-0.1259986020583279,0.6666225331471705,-0.13077919354156756,-0.3407750999323733,True
47.4,2.402852649537985,1.505882559118242,9.481372875595627,0.1007505005765831,-0.07428878748643464,-0.024173257601854552,0.007240662811184295,2.241660198655481,-0.0007376945224712647,1.332392648695122,True
47.5,1.3538326139079992,1.319541701315417,9.243803613195697,-0.005250929430547841,0.11796130628271329,-0.2899097411972332,0.19358152061400946,1.1926401630254955,-0.2664741781178499,1.8634085780282517,True
47.6,1.4259532921130096,1.6657111410039322,9.356034372120355,-0.08488871546365734,-0.07703703813134086,-0.04021576344044448,-0.15258791907450586,1.2647608412305058,-0.016780200361061193,-3.4616943968851532,True
47.7,2.0296397813555433,1.2263091991444504,10.90876981855803,-0.06425999030618067,-0.04001596008201793,-0.1188963226987801,0.28681402278497603,1.8684473304730396,-0.09546075961939682,4.3940194185948185,True
47.8,2.004025640657979,1.4824857250511896,9.42023504730492,0.23930891935356197,-0.036765528645611625,-0.14086835492274344,0.030637496878236803,1.8428331897754753,-0.11743279184336015,-2.5617652590673923,True
47.9,2.1042587044059102,1.5057719547959365,7.774086772348931,-0.04078870477366629,0.08312163445258942,-0.26214455651093554,0.0073512671334898805,1.9430662535234065,-0.23870899343155225,-0.23286229744746922,True
48.0,0.9918114840762557,1.1244264441757035,11.410867926116026,-0.371663197574234,-0.06315048672474861,-0.17900456203295995,0.3886967777537229,0.8306190331937519,-0.15556899895357665,3.8134551062023303,True
48.1,3.1322364825365145,0.5379926260278338,9.597492463506114,0.35204936344430293,-0.12617315739020415,-0.10489955983062296,0.9751305959015926,2.9710440316540105,-0.08146399675123968,5.864338181478696,True
48.2,1.9719600021581094,0.5114555073817516,8.691325558790519,-0.32270673248227744,0.156063223880243,-0.5222437528889522,1.0016677145476747,1.8107675512756056,-0.4988081898095689,0.26537118646082103,True
48.3,0.7959257720519624,1.0340033132027766,10.21164972064378,0.2777098555804301,-0.13945400217043652,-0.1835561696294937,0.4791199087266498,0.6347333211694585,-0.1601206065501104,-5.225478058210249,True
48.4,2.702617220731814,2.1523334615564544,8.062147686928673,-0.09108393050740321,-0.0544643142228523,-0.16249704713436497,-0.639210239627028,2.54142476984931,-0.13906148405498167,-11.183301483536777,True
48.5,2.6602125962560885,0.9988304989576804,10.426144779203442,0.017472068415109246,0.04360294767553524,-0.2944994391714707,0.514292722971746,2.4990201453735845,-0.27106387609208743,11.53502962598774,True
48.6,1.4039751396927584,1.83292048354268,8.221335793061561,0.09280535178021657,0.15807170329385814,-0.4631609483107389,-0.3197972616132536,1.2427826888102547,-0.4397253852313556,-8.340899845849995,True
48.7,1.015620856740184,1.77688019931396,10.410687992708144,-0.15209120279103167,-0.1151548046061361,-0.20202515915935976,-0.26375697738453363,0.8544284058576802,-0.17858959607997646,0.5604028422871998,True
48.8,2.880894862344829,1.3997649804480015,9.111982311934081,0.09278932923349928,-0.0940256809119097,-0.36822596484627096,0.11335824148142493,2.719702411462325,-0.3447904017668877,3.7711521886595856,True
48.9,1.4340989344189647,2.0238110648428194,9.271340369468463,-0.031327864531564185,-0.12724683150539423,-0.4337355812036372,-0.510687842913393,1.272906483536461,-0.41030001812425393,-6.240460843948179,True
49.0,3.2153565264346016,2.0271661538362564,9.316800257483328,-0.07230644671670644,-0.2500592593548638,-0.2247584496610389,-0.51404293190683,3.0541640755520976,-0.2013228865816556,-0.03355088993437061,True
49.1,2.8450794819271796,2.064546946260529,10.661711917800007,0.022036844178382267,-0.05188647205637358,-0.471261129162237,-0.5514237243311026,2.6838870310446756,-0.44782556608285373,-0.37380792424272613,True
49.2,2.721232839970214,2.9619723157455193,8.167035187013798,0.288144084758951,-0.14178876913418118,-0.33231812484618634,-1.448849093816093,2.56004038908771,-0.30888256176680307,-8.974253694849903,True
49.3,2.8696708960259003,2.387702189767017,8.429350156331994,-0.27676938247217164,0.03677277349077554,-0.5237321705553072,-0.8745789678375908,2.7084784451433963,-0.5002966074759239,5.742701259785021,True
49.4,1.9783264580538864,2.3124143274701705,9.531375459334916,0.047441526019391,-0.10575480547937735,-0.45506659176474146,-0.7992911055407441,1.8171340071713826,-0.4316310286853582,0.752878622968467,True
49.5,2.962198247749573,2.841651822001429,9.063103961718767,-0.08855837012881519,-0.2075966804433838,-0.33373967892361256,-1.3285286000720025,2.801005796867069,-0.3103041158442293,-5.2923749453125835,True
49.6,3.4117654348672093,2.3615200583153553,9.40855619732628,-0.08558086984817143,-0.09661296019498725,-0.5073599680318692,-0.8483968363859289,3.2505729839847053,-0.48392440495248595,4.801317636860736,True
49.7,2.773611415675796,1.9938698721845995,9.541316389642207,-0.004270196086653205,-0.13630056036658053,-0.49012290926764013,-0.48074665025517316,2.612418964793292,-0.46668734618825686,3.6765018613075573,True
49.8,2.9596172003580596,2.4560624071591484,8.37840744039179,-0.05809996575452246,-0.1355269298923413,-0.4349157545673928,-0.942939185229722,2.7984247494755556,-0.4114801914880095,-4.621925349745488,True
49.9,3.3795514910935913,1.7795500125800383,10.473636575237139,-0.1723614512006181,-0.12029503820158956,-0.3527677728035725,-0.2664267906506119,3.2183590402110873,-0.32933220972418925,6.7651239457911005,True
50.0,2.689162557214854,2.0678454012831264,8.824234214346077,0.25160125645216863,0.03452136056037411,-0.4766671807515921,-0.5547221793537,2.52797010633235,-0.4532316176722088,-2.8829538870308813,True
50.1,1.9590691427121742,2.689249459549503,8.885343880931876,-0.0634808684365037,0.07502676860733527,-0.3190002926879217,-1.1761262376200767,1.7978766918296705,-0.2955647296085384,-6.214040582663767,True
50.2,1.6616660793992228,2.4638534952963713,9.151284465944876,-0.015233068515215865,0.0887488798756604,-0.3495921506930619,-0.9507302733669449,1.500473628516719,-0.3261565876136786,2.253959642531318,True
50.3,1.439043287926112,2.293409132582173,9.003757130768848,-0.0887373342056369,0.12359189166820723,-0.34648005181816594,-0.7802859106527464,1.2778508370436081,-0.32304448873878266,1.704443627141985,True
50.4,0.4246296377295052,2.457898611235057,9.81625013422495,-0.1118713263274873,0.061566665778109625,-0.31225493761704076,-0.9447753893056305,0.26343718684700135,-0.2888193745376575,-1.644894786528841,True
50.5,0.9884663431570002,2.0996424769765607,9.27450430703502,6.825538155485903e-06,-0.09795632556609046,-0.18169672538899337,-0.5865192550471343,0.8272738922744963,-0.15826116230961007,3.5825613425849623,True
50.6,1.6234932295762927,2.34914245316283,9.300286661103124,0.12445904814493364,-0.11146816588224724,-0.2032462867975068,-0.8360192312334036,1.462300778693789,-0.1798107237181235,-2.494999761862693,True
50.7,0.8258931102767157,2.7139862530328185,9.48569460306581,-0.16683604941695857,-0.04499585133647118,-0.19860905284573332,-1.200863031103392,0.6647006593942119,-0.17517348976635003,-3.648437998699885,True
50.8,1.4412190915850034,1.4591211900689418,10.13599176993437,0.17922345697255365,-0.055594792432248255,-0.10833478860415663,0.05400203186048458,1.2800266407024996,-0.08489922552477334,12.548650629638766,True
50.9,0.7725171437483508,3.1676048024343677,8.17905978062509,0.12625177532626997,0.13413870038960213,-0.29611500669823043,-1.6544815805049413,0.6113246928658469,-0.27267944361884716,-17.08483612365426,True
51.0,-0.09984326786332264,2.795977929461701,9.756412356918043,-0.07277008431352679,-0.044584022791349515,0.015526122331110458,-1.2828547075322747,-0.2610357187458265,0.038961685410493746,3.716268729726666,True
51.1,1.2643265838623947,1.7563386197242916,9.612508596275774,-0.20569551575734454,0.1576101490749129,-0.18953595271877266,-0.24321539779486523,1.103134132979891,-0.16610038963938936,10.396393097374094,True
51.2,-0.8949997554408357,2.457296414720986,10.368781078922883,0.3516159324729844,0.028155861295682746,-0.16704063542355882,-0.9441731927915595,-1.0561922063233395,-0.14360507234417552,-7.009577949966943,True
51.3,0.6103762580880813,3.2823085373415233,7.555715662335744,0.014856825812202185,-0.1525257583312753,0.06431979875856625,-1.769185315412097,0.4491838072055774,0.08775536183794953,-8.250121226205373,True
51.4,0.5309246941058166,1.9050328377062735,11.252609011243173,-0.3189124884850673,-0.023739525161185163,-0.11181759700182974,-0.39190961577684713,0.36973224322331266,-0.08838203392244645,13.772756996352497,True
51.5,0.5031175114184374,2.150939631992017,9.4825900105602,0.4466601694316134,-0.0009346504638352997,-0.1640788341943039,-0.6378164100625907,0.3419250605359335,-0.14064327111492061,-2.459067942857436,True
51.6,-0.4059701774042731,3.4534377027699885,7.909912463657306,-0.001194215317969101,-0.06633679698018351,-0.10785622747423637,-1.9403144808405621,-0.567162628286777,-0.08442066439485309,-13.024980707779713,True
51.7,0.1150417234750577,2.3249291358464954,9.800980558041289,-0.25028951842344327,-0.08931004269312028,0.037241903606464614,-0.811805913917069,-0.04615072740744616,0.060677466685847906,11.285085669234931,True
51.8,0.37251949795123573,2.0394369410829,9.720751320613628,0.07933927851564854,0.01389883367855615,-0.1194152756115962,-0.5263137191534735,0.21132704706873187,-0.09597971253221292,2.8549219476359555,True
51.9,-0.05345364688022998,2.8457427268969417,8.57562497870108,0.054967816973967555,-0.10615096214166528,-0.04807429711051678,-1.3326195049675154,-0.21464609776273386,-0.02463873403113349,-8.063057858140418,True
52.0,0.4812991373918578,2.6556119324865843,9.774278723758092,-0.12646119501334135,-0.14619648244629915,0.010855849726089916,-1.142488710557158,0.3201066865093539,0.0342914128054732,1.901307944103574,True
52.1,0.7633365406818831,2.4718829512271907,9.255613779664966,0.09048436246381099,-0.11054414726726781,-0.017171780231087074,-0.9587597292977643,0.6021440897993792,0.0062637828482962135,1.8372898125939363,True
52.2,1.1053773329976175,2.358686848248734,9.0355212190387,-0.16966433131709438,-0.0478344596736273,-0.11522185768899283,-0.8455636263193076,0.9441848821151136,-0.09178629460960955,1.1319610297845673,True
52.3,0.6278295243390956,2.336736784148156,9.326450604926976,0.08980764589832087,-0.05353162522164255,-0.14488689138586,-0.8236135622187295,0.46663707345659167,-0.12145132830647672,0.21950064100578093,True
52.4,0.7668006872744692,2.552840017724553,9.465037446558577,-0.09913520896257402,-0.10808700690941325,-0.024246155349303643,-1.0397167957951268,0.6056082363919653,-0.0008105922699203558,-2.1610323357639727,True
52.5,1.0556782517698524,2.295759989288073,9.78642397735673,0.1653752342120843,-0.00010025264504146154,-0.1125985362875287,-0.7826367673586467,0.8944858008873485,-0.08916297320814541,2.5708002843648003,True
52.6,0.09266175181188246,2.726931666646093,7.452495581110169,0.018327225804793693,0.07731997057266217,-0.1642755072992943,-1.2138084447166666,-0.0685306990706214,-0.140839944219911,-4.311716773580199,True
52.7,0.541851971387664,2.220975345907869,10.576609482765523,-0.3816413285672659,-0.07966023752537348,0.023526394650944367,-0.7078521239784428,0.38065952050516016,0.04696195773032766,5.059563207382238,True
52.8,0.53242012260091,1.9925526932400504,9.868249569637369,0.3134513017054852,-0.035575828611900694,-0.04389899862881502,-0.47942947131062397,0.3712276717184061,-0.020463435549431735,2.284226526678188,True
52.9,0.425107353894428,2.1197288745392764,7.938028381162268,-0.19339542468338908,0.06996468785562673,-0.032863807575452,-0.60660565260985,0.2639149030119241,-0.009428244496068713,-1.2717618129922603,True
53.0,0.08764544841727917,0.7443737408613028,10.769359194079671,-0.24918727489775055,0.0697066593314551,-0.08223957224688322,0.7687494810681236,-0.07354700246522469,-0.058804009167499935,13.753551336779735,True
53.1,-0.40106999094486695,1.8616293539561832,9.434833022005522,0.28134917014024946,-0.0944284829557672,0.0644765020405445,-0.34850613202675684,-0.5622624418273708,0.08791206511992779,-11.172556130948802,True
53.2,1.100377611414855,1.5733730541141169,9.175068451133289,-0.20201724421643724,-0.07773181516049482,0.07766634544450715,-0.06024983218469049,0.939185160532351,0.10110190852389044,2.8825629984206635,True
53.3,0.653694893774695,1.30708504141148,10.435274040084181,0.1829002635702675,-0.06281076236639824,-0.09436058515790913,0.2060381805179463,0.49250244289219114,-0.07092502207852584,2.662880127026368,True
53.4,0.3771797922790066,2.110877834185591,8.201566749579316,0.09367208601146182,-0.04264595490474948,-0.10286465738926402,-0.5977546122561648,0.21598734139650275,-0.07942909430988074,-8.03792792774111,True
53.5,0.512410903587666,1.3516961952267723,10.053495499816018,-0.15249980895214102,-0.11188799426195012,0.03263887854852847,0.16142702670265408,0.35121845270516205,0.05607444162791175,7.591816389588188,True
53.6,0.9436596229159852,1.0619743349428885,10.067031065626916,-0.03562130475953273,0.010126037595629038,-0.10942884185199643,0.4511488869865379,0.7824671720334813,-0.08599327877261315,2.897218602838838,True
53.7,0.0065659397703605495,0.9549447520784707,10.02324205751507,0.08525075144922523,-0.03148577625598964,0.03513804845247287,0.5581784698509556,-0.15462651111214332,0.058573611531856154,1.0702958286441777,True
53.8,1.76003458948419,0.7053167096843367,8.30755706315585,0.13889402080630847,0.14228060243076418,-0.025041961206670404,0.8078065122450897,1.5988421386016862,-0.0016063981272871168,2.4962804239413403,True
53.9,1.1660673955738827,1.8526484467356823,8.079472382131927,0.04240709206305766,0.25886761812936293,-0.41301747677567996,-0.3395252248062559,1.004874944691379,-0.3895819136962967,-11.473317370513456,True
54.0,1.4249172579101133,1.525040434733582,8.62366710619781,0.13615832072775866,0.10950828870066309,-0.18415862913712047,-0.011917212804155586,1.2637248070276095,-0.16072306605773717,3.2760801200210032,True
54.1,2.171058775966146,0.6314365596674341,8.608952893541362,0.16999701000144699,0.1297335205399481,-0.16008630777843058,0.8816866622619923,2.009866325083642,-0.13665074469904728,8.936038750661478,True
54.2,0.436374602123632,0.6668482227242228,8.271362058500449,0.021172420439531985,0.2224078774456971,-0.3567619575976,0.8462749992052035,0.2751821512411281,-0.3333263945182167,-0.3541166305678878,True
54.3,0.6646578400837004,0.4393672340900997,8.989272987931178,-0.1640932029513588,0.09774344792037983,-0.06704041507526924,1.0737559878393266,0.5034653892011965,-0.04360485199588596,2.27480988634123,True
54.4,1.0021227328008577,-0.24803156424715372,10.486316351825076,-0.0632534497409377,0.014639648550985752,-0.05936518439553929,1.7611547861765802,0.8409302819183538,-0.035929621316156,6.873987983372536,True
54.5,0.15119814354308914,-0.1803731247922748,9.66886545442574,0.19029723640565713,0.07700241682283177,-0.12527167887391719,1.6934963467217012,-0.009994307339414726,-0.1018361157945339,-0.6765843945487893,True
54.6,-0.6131768279185027,-0.042048278730918286,9.382836098743452,-0.10859955527665305,0.11150047367405487,-7.027004795917731e-06,1.5551715006603446,-0.7743692788010066,0.02342853607458737,-1.3832484606135664,True
54.7,0.5350019804370763,-0.8192961546628069,10.409847314287333,-0.14296817295863032,-0.0025913382222570868,0.11027533246084746,2.332419376592233,0.37380952955457236,0.13371089554023075,7.7724787593188855,True
54.8,-0.2751876551103975,-0.6768942176216579,9.8788538335435,0.16773973956364785,0.17372979033007832,-0.07674134480498933,2.1900174395510845,-0.43638010599290133,-0.053305781725606044,-1.4240193704114867,True
54.9,-0.5097365829583997,-0.3603330922094376,9.826958832496222,-0.08307610276109899,0.1414061948111599,0.04153458923058268,1.873456314138864,-0.6709290338409036,0.06497015230996597,-3.165611254122205,True
55.0,-0.28041340803276915,0.04502815687121581,11.096223889115041,0.20580564362307,0.2488980697967181,0.08357541437803923,1.4680950650582105,-0.44160585891527304,0.10701097745742251,-4.053612490806535,True
55.1,-0.7751716561453416,1.0125192789459336,8.923067652808083,0.19346151675890605,0.15373829361715186,0.020419329778705628,0.5006039429834928,-0.9363641070278454,0.04385489285808891,-9.674911220747177,True
55.2,-0.32465363004196424,-0.7500644521590552,9.886460880234035,0.007962894489624228,0.16353284417431915,0.10184969764122678,2.2631876740884813,-0.4858460809244681,0.12528526072061008,17.625837311049885,True
55.3,-0.9258343154502112,3.030111641610875,10.663305220667604,0.681893585849637,0.06920984156355821,-0.32053921603992813,-1.5169884196814485,-1.087026766332715,-0.29710365296054486,-37.80176093769929,True
55.4,-1.8898988926693043,7.001289885147002,5.3992913636301205,0.8751553388292294,-0.24845479065382103,-0.26966720452894694,-5.488166663217576,-2.0510913435518083,-0.24623164144956364,-39.71178243536127,True
55.5,0.5769701661297204,1.1821450416472483,5.891156746573614,-1.41162544817314,-0.4289484341034357,0.11450797812764328,0.33097818028217807,0.4157777152472165,0.13794354120702657,58.19144843499753,True
55.6,0.05062440658090957,-0.14156516143324402,15.167844443831179,-0.8425824013681902,0.07061623895895978,0.1800035637644525,1.6546883833626704,-0.1105680443015943,0.2034391268438358,13.237102030804923,True
55.7,-0.49742843203278847,1.4926220112567072,11.565421105431556,0.16478023281087434,-0.024923321837747692,0.15870586742159654,0.02050121067271915,-0.6586208829152923,0.18214143050097983,-16.341871726899512,True
55.8,0.37493199538470295,1.2631567139133066,11.035386175684504,-0.35201917509112857,-0.25510676183516856,0.3213390193950794,0.24996650801611975,0.2137395445021991,0.3447745824744627,2.294652973434006,True
55.9,1.3592743309353492,-1.1212184575688118,8.787599784205538,-0.031797705813065374,0.07470175267932118,-0.1849859018050918,2.634341679498238,1.1980818800528454,-0.1615503387257085,23.843751714821185,True
56.0,-0.09974227644538186,0.5640971541839868,5.824535937298128,0.15542063070843667,0.023158403469152402,-0.24978501310781862,0.9490260677454396,-0.2609347273278857,-0.22634945002843532,-16.853156117527984,True
56.1,-0.8128614522017745,1.8791457963701643,6.862663940688874,0.0517626295125481,-0.18940966422406627,-0.044601807891447284,-0.36602257444073794,-0.9740539030842784,-0.021166244812063997,-13.150486421861775,True
56.2,2.105041322056915,2.5502815703711654,7.268709421536464,0.7516130739209653,-0.34815995830999097,0.510554016267019,-1.037158348441739,1.943848871174411,0.5339895793464023,-6.711357740010011,True
56.3,2.1304454503850208,7.080001976975916,9.782950296024008,-0.18076143203772815,-0.18649003351149776,-0.303775753417691,-5.56687875504649,1.969252999502517,-0.2803401903383077,-45.297204066047506,True
56.4,-1.1820011196193094,4.140775301251674,14.96280986568678,-0.40423830814578793,-0.22413614379280553,0.19173852402463876,-2.6276520793222478,-1.3431935705018132,0.21517408710402205,29.392266757242425,True
56.5,4.591152827482812,-0.4006946112714684,8.714473995518459,0.03850213325075828,0.5173754201646541,0.01903114648508509,1.9138178332008948,4.429960376600309,0.04246670956446838,45.41469912523142,True
56.6,-0.39896796770425313,2.776626610253067,7.044877753843426,0.3552072272247291,0.3185638382533504,-0.6847463755642181,-1.2635033883236406,-0.560160418586757,-0.6613108124848348,-31.773212215245355,True
56.7,-1.8807113455720652,3.861790028009875,8.874744206205833,-0.1262572086440089,-0.4081359234819122,0.3381210465349812,-2.3486668060804483,-2.041903796454569,0.3615566096143645,-10.851634177568076,True
56.8,3.9603167363695166,3.013382206526878,11.90895069353053,-0.11136921036409737,-0.4146424923605787,0.6786998129242972,-1.5002589845974514,3.7991242854870126,0.7021353760036805,8.484078214829967,True
56.9,3.6158606461868623,2.1042051495805163,9.904099599519364,0.2522909766284723,0.30266746364225827,-0.48062975137466596,-0.5910819276510899,3.4546681953043583,-0.4571941882952827,9.091770569463614,True
57.0,-0.6417433125409788,1.233188999329716,7.131385970687907,-0.07758049385600581,0.46089120753186413,-0.6530349724454394,0.27993422259971035,-0.8029357634234827,-0.6295994093660561,8.710161502508003,True
57.1,-2.2534142039952183,3.4789992430953642,9.897900510494857,0.07865535142945507,0.20308720812681602,-0.1687827601044118,-1.9658760211659378,-2.4146066548777223,-0.1453471970250285,-22.458102437656482,True
57.2,-1.362144951453951,3.986129030490099,8.731759205334692,0.07017845154391049,-0.23611819527522662,0.5905316653535848,-2.4730058085606723,-1.5233374023364548,0.6139672284329681,-5.071297873947344,True
57.3,3.8786999245120346,0.9679725787794174,9.612514267985603,-0.44924868364234816,0.11105614747241645,0.24329467394249102,0.5451506431500089,3.7175074736295306,0.2667302370218743,30.18156451710681,True
57.4,-0.6077277503585761,2.1340364074889218,10.266551818183684,0.28534387689288115,0.4686556034756389,-0.716937883274617,-0.6209131855594954,-0.76892020124108,-0.6935023201952337,-11.660638287095043,True
57.5,-3.0884458737636304,4.0139267973274295,8.144677078834466,0.22340953689400792,-0.006127690061445348,0.10996571620635771,-2.5008035753980034,-3.2496383246461344,0.133401279285741,-18.798903898385078,True
57.6,0.8906714338494214,2.1295278887908307,8.631084299029855,-0.4016473903327606,-0.014851120123451973,0.27065652812453406,-0.6164046668614043,0.7294789829669175,0.2940920912039173,18.84398908536599,True
57.7,-0.5270297346552243,1.9372424692172496,11.133342145390678,-0.07442264414158756,0.12238719170391385,-0.15793862534831352,-0.42411924728782324,-0.6882221855377282,-0.13450306226893022,1.9228541957358103,True
57.8,-0.5615910555794756,2.94635973711522,8.659954509354824,0.3172442000942539,-0.11918201711935962,0.15957352231178376,-1.4332365151857938,-0.7227835064619795,0.18300908539116706,-10.091172678979705,True
57.9,0.5207656118498244,2.210462457728066,9.16417807459328,-0.3025862185090539,0.05843619617714621,-0.04501330513271225,-0.6973392357986394,0.3595731609673205,-0.02157774205332896,7.358972793871543,True
